timestamp,pos_x,pos_y,pos_z,target_x,target_y,target_z,roll,pitch,yaw,vel_x,vel_y,vel_z,angular_vel_x,angular_vel_y,angular_vel_z,accel_x,accel_y,accel_z,f_world_x,f_world_y,f_world_z,f_body_x,f_body_y,f_body_z,tau_x,tau_y,tau_z,u1,u2,u3,u4,u5,T12,T34,T5,alpha1,alpha2theta1,theta2
1762670793.9890277,0.0,0.0,0.075,5.0,0.0,1.5,0.0,0.0,0.0,0.0,0.0,0.0,0.0,0.0,0.0,0.0,0.0,0.0,0.0,0.0,0.0,0.0,0.0,0.0,0.0,0.0,0.0,0.0,0.0,0.0,0.0,0.0,0.0,0.0,0.0,0.0,0.0,0.0,0.0
1762670793.990564,0.0,0.0,0.075,5.0,0.0,1.5,0.0,0.0,0.0,0.0,0.0,0.0,0.0,0.0,0.0,0.0,0.0,0.0,0.0,0.0,0.0,0.0,0.0,0.0,0.0,0.0,0.0,0.0,0.0,0.0,0.0,0.0,0.0,0.0,0.0,0.0,0.0,0.0,0.0
1762670793.9918408,0.0,0.0,0.075,5.0,0.0,1.5,0.0,0.0,0.0,0.0,0.0,0.0,0.0,0.0,0.0,0.0,0.0,0.0,0.0,0.0,0.0,0.0,0.0,0.0,0.0,0.0,0.0,0.0,0.0,0.0,0.0,0.0,0.0,0.0,0.0,0.0,0.0,0.0,0.0
1762670793.9934356,2.103013068659975e-20,3.653068323536459e-21,0.07509278001720499,5.0,0.0,1.5,1.9271756710624885e-19,0.0,0.0,4.057302980172453e-17,5.646038391721966e-17,0.18596630090943841,-4.989285391309309e-16,3.585353319022737e-16,-4.237840448763354e-32,0.0,0.0,0.0,0.0,0.0,0.0,0.0,0.0,0.0,0.0,0.0,0.0,0.0,0.0,0.0,0.0,0.0,0.0,0.0,0.0,0.0,0.0,0.0,0.0
1762670793.99523,2.103013068659975e-20,3.653068323536459e-21,0.07509278001720499,5.0,0.0,1.5,1.9271756710624885e-19,0.0,0.0,4.057302980172453e-17,5.646038391721966e-17,0.18596630090943841,-4.989285391309309e-16,3.585353319022737e-16,-4.237840448763354e-32,0.0,0.0,0.0,0.0,0.0,0.0,0.0,0.0,0.0,0.0,0.0,0.0,0.0,0.0,0.0,0.0,0.0,0.0,0.0,0.0,0.0,0.0,0.0,0.0
1762670793.9965832,2.103013068659975e-20,3.653068323536459e-21,0.07509278001720499,5.0,0.0,1.5,1.9271756710624885e-19,0.0,0.0,4.057302980172453e-17,5.646038391721966e-17,0.18596630090943841,-4.989285391309309e-16,3.585353319022737e-16,-4.237840448763354e-32,0.0,0.0,0.0,0.0,0.0,0.0,0.0,0.0,0.0,0.0,0.0,0.0,0.0,0.0,0.0,0.0,0.0,0.0,0.0,0.0,0.0,0.0,0.0,0.0
1762670793.9980664,9.298509485824552e-20,8.879275202807888e-21,0.07536372105656404,5.0,0.0,1.5,8.768017988643632e-19,0.0,0.0,9.559700679476504e-17,-2.810533191243687e-17,0.3528901718076558,2.482592145591939e-16,8.447151956630933e-16,-6.780775478003532e-33,0.0,0.0,0.0,0.0,0.0,0.0,0.0,0.0,0.0,0.0,0.0,0.0,0.0,0.0,0.0,0.0,0.0,0.0,0.0,0.0,0.0,0.0,0.0,0.0
1762670793.9994771,9.298509485824552e-20,8.879275202807888e-21,0.07536372105656404,5.0,0.0,1.5,8.768017988643632e-19,0.0,0.0,9.559700679476504e-17,-2.810533191243687e-17,0.3528901718076558,2.482592145591939e-16,8.447151956630933e-16,-6.780775478003532e-33,0.0,0.0,0.0,0.0,0.0,0.0,0.0,0.0,0.0,0.0,0.0,0.0,0.0,0.0,0.0,0.0,0.0,0.0,0.0,0.0,0.0,0.0,0.0,0.0
1762670794.0008473,9.298509485824552e-20,8.879275202807888e-21,0.07536372105656404,5.0,0.0,1.5,8.768017988643632e-19,0.0,0.0,9.559700679476504e-17,-2.810533191243687e-17,0.3528901718076558,2.482592145591939e-16,8.447151956630933e-16,-6.780775478003532e-33,0.0,0.0,0.0,0.0,0.0,0.0,0.0,0.0,0.0,0.0,0.0,0.0,0.0,0.0,0.0,0.0,0.0,0.0,0.0,0.0,0.0,0.0,0.0,0.0
1762670794.0022812,1.88650303187159e-19,-2.1404345086613896e-20,0.07579275268993678,5.0,0.0,1.5,1.1371810109014206e-18,9.47110974035178e-19,9.608617359643769e-24,1.296194485503681e-16,-5.994333123171224e-17,0.5023822679268458,5.306134909171182e-16,1.1430058635231892e-15,9.608617304117413e-21,0.0,0.0,0.0,0.0,0.0,0.0,0.0,0.0,0.0,0.0,0.0,0.0,0.0,0.0,0.0,0.0,0.0,0.0,0.0,0.0,0.0,0.0,0.0,0.0
1762670794.0036654,1.88650303187159e-19,-2.1404345086613896e-20,0.07579275268993678,5.0,0.0,1.5,1.1371810109014206e-18,9.47110974035178e-19,9.608617359643769e-24,1.296194485503681e-16,-5.994333123171224e-17,0.5023822679268458,5.306134909171182e-16,1.1430058635231892e-15,9.608617304117413e-21,0.0,0.0,0.0,0.0,0.0,0.0,0.0,0.0,0.0,0.0,0.0,0.0,0.0,0.0,0.0,0.0,0.0,0.0,0.0,0.0,0.0,0.0,0.0,0.0
1762670794.0050287,1.88650303187159e-19,-2.1404345086613896e-20,0.07579275268993678,5.0,0.0,1.5,1.1371810109014206e-18,9.47110974035178e-19,9.608617359643769e-24,1.296194485503681e-16,-5.994333123171224e-17,0.5023822679268458,5.306134909171182e-16,1.1430058635231892e-15,9.608617304117413e-21,0.0,0.0,0.0,0.0,0.0,0.0,0.0,0.0,0.0,0.0,0.0,0.0,0.0,0.0,0.0,0.0,0.0,0.0,0.0,0.0,0.0,0.0,0.0,0.0
1762670794.0065486,3.246305407780506e-19,-8.093218825488515e-20,0.07636313053302986,5.0,0.0,1.5,2.3365199319460218e-18,1.2602478530548094e-18,4.804308571233822e-24,1.6387109090964699e-16,-8.772642330465513e-17,0.6358010018325211,7.771276048617919e-16,1.4363867994420113e-15,4.804308518467157e-21,0.0,0.0,0.0,0.0,0.0,0.0,0.0,0.0,0.0,0.0,0.0,0.0,0.0,0.0,0.0,0.0,0.0,0.0,0.0,0.0,0.0,0.0,0.0,0.0
1762670794.0079405,3.246305407780506e-19,-8.093218825488515e-20,0.07636313053302986,5.0,0.0,1.5,2.3365199319460218e-18,1.2602478530548094e-18,4.804308571233822e-24,1.6387109090964699e-16,-8.772642330465513e-17,0.6358010018325211,7.771276048617919e-16,1.4363867994420113e-15,4.804308518467157e-21,0.0,0.0,0.0,0.0,0.0,0.0,0.0,0.0,0.0,0.0,0.0,0.0,0.0,0.0,0.0,0.0,0.0,0.0,0.0,0.0,0.0,0.0,0.0,0.0
1762670794.0092413,3.246305407780506e-19,-8.093218825488515e-20,0.07636313053302986,5.0,0.0,1.5,2.3365199319460218e-18,1.2602478530548094e-18,4.804308571233822e-24,1.6387109090964699e-16,-8.772642330465513e-17,0.6358010018325211,7.771276048617919e-16,1.4363867994420113e-15,4.804308518467157e-21,0.0,0.0,0.0,0.0,0.0,0.0,0.0,0.0,0.0,0.0,0.0,0.0,0.0,0.0,0.0,0.0,0.0,0.0,0.0,0.0,0.0,0.0,0.0,0.0
1762670794.010677,4.870342699065386e-19,-1.658737690821584e-19,0.07705942062802515,5.0,0.0,1.5,3.1074551270312043e-18,2.7165818927519157e-18,9.60861701772898e-24,1.9143783511121547e-16,-1.1176751763995104e-16,0.754409895987873,9.9062535844349e-16,1.681041116056781e-15,4.804308375147819e-21,0.0,0.0,0.0,0.0,0.0,0.0,0.0,0.0,0.0,0.0,0.0,0.0,0.0,0.0,0.0,0.0,0.0,0.0,0.0,0.0,0.0,0.0,0.0,0.0
1762670794.0121439,4.870342699065386e-19,-1.658737690821584e-19,0.07705942062802515,5.0,0.0,1.5,3.1074551270312043e-18,2.7165818927519157e-18,9.60861701772898e-24,1.9143783511121547e-16,-1.1176751763995104e-16,0.754409895987873,9.9062535844349e-16,1.681041116056781e-15,4.804308375147819e-21,0.0,0.0,0.0,0.0,0.0,0.0,0.0,0.0,0.0,0.0,0.0,0.0,0.0,0.0,0.0,0.0,0.0,0.0,0.0,0.0,0.0,0.0,0.0,0.0
1762670794.0134292,4.870342699065386e-19,-1.658737690821584e-19,0.07705942062802515,5.0,0.0,1.5,3.1074551270312043e-18,2.7165818927519157e-18,9.60861701772898e-24,1.9143783511121547e-16,-1.1176751763995104e-16,0.754409895987873,9.9062535844349e-16,1.681041116056781e-15,4.804308375147819e-21,0.0,0.0,0.0,0.0,0.0,0.0,0.0,0.0,0.0,0.0,0.0,0.0,0.0,0.0,0.0,0.0,0.0,0.0,0.0,0.0,0.0,0.0,0.0,0.0
1762670794.014836,6.771894379517838e-19,-2.8085271472004244e-19,0.07786740772794647,5.0,0.0,1.5,4.150381556738596e-18,4.421018642981456e-18,1.4412914664303576e-23,2.165672064389887e-16,-1.3652356295761712e-16,0.8593838622595674,1.2103340994381174e-15,1.902444608980998e-15,4.80430820069772e-21,0.0,0.0,0.0,0.0,0.0,0.0,0.0,0.0,0.0,0.0,0.0,0.0,0.0,0.0,0.0,0.0,0.0,0.0,0.0,0.0,0.0,0.0,0.0,0.0
1762670794.016151,6.771894379517838e-19,-2.8085271472004244e-19,0.07786740772794647,5.0,0.0,1.5,4.150381556738596e-18,4.421018642981456e-18,1.4412914664303576e-23,2.165672064389887e-16,-1.3652356295761712e-16,0.8593838622595674,1.2103340994381174e-15,1.902444608980998e-15,4.80430820069772e-21,0.0,0.0,0.0,0.0,0.0,0.0,0.0,0.0,0.0,0.0,0.0,0.0,0.0,0.0,0.0,0.0,0.0,0.0,0.0,0.0,0.0,0.0,0.0,0.0
1762670794.0174928,6.771894379517838e-19,-2.8085271472004244e-19,0.07786740772794647,5.0,0.0,1.5,4.150381556738596e-18,4.421018642981456e-18,1.4412914664303576e-23,2.165672064389887e-16,-1.3652356295761712e-16,0.8593838622595674,1.2103340994381174e-15,1.902444608980998e-15,4.80430820069772e-21,0.0,0.0,0.0,0.0,0.0,0.0,0.0,0.0,0.0,0.0,0.0,0.0,0.0,0.0,0.0,0.0,0.0,0.0,0.0,0.0,0.0,0.0,0.0,0.0
1762670794.0191905,8.879792396469351e-19,-4.1544876657479356e-19,0.07877400965675717,5.0,0.0,1.5,5.361252115457693e-18,6.307925669246968e-18,2.7672817935197626e-21,2.3706777289150297e-16,-1.5651202735729542e-16,0.9518150782504401,1.3829705461262788e-15,2.0814062161951084e-15,1.3788365811029078e-18,0.0,0.0,0.0,0.0,0.0,0.0,0.0,0.0,0.0,0.0,0.0,0.0,0.0,0.0,0.0,0.0,0.0,0.0,0.0,0.0,0.0,0.0,0.0,0.0
1762670794.0209515,8.879792396469351e-19,-4.1544876657479356e-19,0.07877400965675717,5.0,0.0,1.5,5.361252115457693e-18,6.307925669246968e-18,2.7672817935197626e-21,2.3706777289150297e-16,-1.5651202735729542e-16,0.9518150782504401,1.3829705461262788e-15,2.0814062161951084e-15,1.3788365811029078e-18,0.0,0.0,0.0,0.0,0.0,0.0,0.0,0.0,0.0,0.0,0.0,0.0,0.0,0.0,0.0,0.0,0.0,0.0,0.0,0.0,0.0,0.0,0.0,0.0
1762670794.0225194,8.879792396469351e-19,-4.1544876657479356e-19,0.07877400965675717,5.0,0.0,1.5,5.361252115457693e-18,6.307925669246968e-18,2.7672817935197626e-21,2.3706777289150297e-16,-1.5651202735729542e-16,0.9518150782504401,1.3829705461262788e-15,2.0814062161951084e-15,1.3788365811029078e-18,0.0,0.0,0.0,0.0,0.0,0.0,0.0,0.0,0.0,0.0,0.0,0.0,0.0,0.0,0.0,0.0,0.0,0.0,0.0,0.0,0.0,0.0,0.0,0.0
1762670794.0241423,1.1128876753915833e-18,-5.651555204655202e-19,0.07976719735486328,5.0,0.0,1.5,6.715425928039629e-18,8.327793763881138e-18,4.146118363819797e-21,2.521474001131098e-16,-1.7202832421909376e-16,1.0327184858807414,1.5214656263912647e-15,2.2162510891386572e-15,1.3788365595556879e-18,0.0,0.0,0.0,0.0,0.0,0.0,0.0,0.0,0.0,0.0,0.0,0.0,0.0,0.0,0.0,0.0,0.0,0.0,0.0,0.0,0.0,0.0,0.0,0.0
1762670794.025529,1.1128876753915833e-18,-5.651555204655202e-19,0.07976719735486328,5.0,0.0,1.5,6.715425928039629e-18,8.327793763881138e-18,4.146118363819797e-21,2.521474001131098e-16,-1.7202832421909376e-16,1.0327184858807414,1.5214656263912647e-15,2.2162510891386572e-15,1.3788365595556879e-18,0.0,0.0,0.0,0.0,0.0,0.0,0.0,0.0,0.0,0.0,0.0,0.0,0.0,0.0,0.0,0.0,0.0,0.0,0.0,0.0,0.0,0.0,0.0,0.0
1762670794.0270069,1.1128876753915833e-18,-5.651555204655202e-19,0.07976719735486328,5.0,0.0,1.5,6.715425928039629e-18,8.327793763881138e-18,4.146118363819797e-21,2.521474001131098e-16,-1.7202832421909376e-16,1.0327184858807414,1.5214656263912647e-15,2.2162510891386572e-15,1.3788365595556879e-18,0.0,0.0,0.0,0.0,0.0,0.0,0.0,0.0,0.0,0.0,0.0,0.0,0.0,0.0,0.0,0.0,0.0,0.0,0.0,0.0,0.0,0.0,0.0,0.0
1762670794.028681,1.3510013063768763e-18,-7.287402860906292e-19,0.0808359202443162,5.0,0.0,1.5,8.19666857723565e-18,1.0469034153550622e-17,5.5249549064171464e-21,2.642414961181212e-16,-1.8485323031852645e-16,1.103036936054556,1.636366294421703e-15,2.3249702786830333e-15,1.3788365257114223e-18,0.0,0.0,0.0,0.0,0.0,0.0,0.0,0.0,0.0,0.0,0.0,0.0,0.0,0.0,0.0,0.0,0.0,0.0,0.0,0.0,0.0,0.0,0.0,0.0
1762670794.0302696,1.3510013063768763e-18,-7.287402860906292e-19,0.0808359202443162,5.0,0.0,1.5,8.19666857723565e-18,1.0469034153550622e-17,5.5249549064171464e-21,2.642414961181212e-16,-1.8485323031852645e-16,1.103036936054556,1.636366294421703e-15,2.3249702786830333e-15,1.3788365257114223e-18,0.0,0.0,0.0,0.0,0.0,0.0,0.0,0.0,0.0,0.0,0.0,0.0,0.0,0.0,0.0,0.0,0.0,0.0,0.0,0.0,0.0,0.0,0.0,0.0
1762670794.0316644,1.3510013063768763e-18,-7.287402860906292e-19,0.0808359202443162,5.0,0.0,1.5,8.19666857723565e-18,1.0469034153550622e-17,5.5249549064171464e-21,2.642414961181212e-16,-1.8485323031852645e-16,1.103036936054556,1.636366294421703e-15,2.3249702786830333e-15,1.3788365257114223e-18,0.0,0.0,0.0,0.0,0.0,0.0,0.0,0.0,0.0,0.0,0.0,0.0,0.0,0.0,0.0,0.0,0.0,0.0,0.0,0.0,0.0,0.0,0.0,0.0
1762670794.0331097,1.6052795997185052e-18,-9.098074203934576e-19,0.08197003657109592,5.0,0.0,1.5,9.836626980505264e-18,1.2747317132444596e-17,6.913400026984214e-21,2.765227187301595e-16,-1.9833978581536377e-16,1.1636460017611228,1.756772864294856e-15,2.4300655164826768e-15,1.383640789236093e-18,0.0,0.0,0.0,0.0,0.0,0.0,0.0,0.0,0.0,0.0,0.0,0.0,0.0,0.0,0.0,0.0,0.0,0.0,0.0,0.0,0.0,0.0,0.0,0.0
1762670794.034459,1.6052795997185052e-18,-9.098074203934576e-19,0.08197003657109592,5.0,0.0,1.5,9.836626980505264e-18,1.2747317132444596e-17,6.913400026984214e-21,2.765227187301595e-16,-1.9833978581536377e-16,1.1636460017611228,1.756772864294856e-15,2.4300655164826768e-15,1.383640789236093e-18,0.0,0.0,0.0,0.0,0.0,0.0,0.0,0.0,0.0,0.0,0.0,0.0,0.0,0.0,0.0,0.0,0.0,0.0,0.0,0.0,0.0,0.0,0.0,0.0
1762670794.035872,1.6052795997185052e-18,-9.098074203934576e-19,0.08197003657109592,5.0,0.0,1.5,9.836626980505264e-18,1.2747317132444596e-17,6.913400026984214e-21,2.765227187301595e-16,-1.9833978581536377e-16,1.1636460017611228,1.756772864294856e-15,2.4300655164826768e-15,1.383640789236093e-18,0.0,0.0,0.0,0.0,0.0,0.0,0.0,0.0,0.0,0.0,0.0,0.0,0.0,0.0,0.0,0.0,0.0,0.0,0.0,0.0,0.0,0.0,0.0,0.0
1762670794.0377235,1.8711761881752015e-18,-1.1030092953601556e-18,0.08316024840349906,5.0,0.0,1.5,1.1587606813265926e-17,1.513754785970615e-17,8.297040789641857e-21,2.867629330838917e-16,-2.095820526674867e-16,1.2153584805659559,1.8574589448006953e-15,2.5222903767074746e-15,1.3836407337153564e-18,0.0,0.0,0.0,0.0,0.0,0.0,0.0,0.0,0.0,0.0,0.0,0.0,0.0,0.0,0.0,0.0,0.0,0.0,0.0,0.0,0.0,0.0,0.0,0.0
1762670794.0392451,1.8711761881752015e-18,-1.1030092953601556e-18,0.08316024840349906,5.0,0.0,1.5,1.1587606813265926e-17,1.513754785970615e-17,8.297040789641857e-21,2.867629330838917e-16,-2.095820526674867e-16,1.2153584805659559,1.8574589448006953e-15,2.5222903767074746e-15,1.3836407337153564e-18,0.0,0.0,0.0,0.0,0.0,0.0,0.0,0.0,0.0,0.0,0.0,0.0,0.0,0.0,0.0,0.0,0.0,0.0,0.0,0.0,0.0,0.0,0.0,0.0
1762670794.0406666,1.8711761881752015e-18,-1.1030092953601556e-18,0.08316024840349906,5.0,0.0,1.5,1.1587606813265926e-17,1.513754785970615e-17,8.297040789641857e-21,2.867629330838917e-16,-2.095820526674867e-16,1.2153584805659559,1.8574589448006953e-15,2.5222903767074746e-15,1.3836407337153564e-18,0.0,0.0,0.0,0.0,0.0,0.0,0.0,0.0,0.0,0.0,0.0,0.0,0.0,0.0,0.0,0.0,0.0,0.0,0.0,0.0,0.0,0.0,0.0,0.0
1762670794.0423214,2.143773351424421e-18,-1.3104784700021256e-18,0.08439804098595055,5.0,0.0,1.5,1.3447451384786856e-17,1.759107616037096e-17,9.440466056554747e-21,2.936222098606394e-16,-2.2091016102010862e-16,1.2589286061382396,1.948481082092875e-15,2.585137252698379e-15,1.2635329527930024e-18,0.0,0.0,0.0,0.0,0.0,0.0,0.0,0.0,0.0,0.0,0.0,0.0,0.0,0.0,0.0,0.0,0.0,0.0,0.0,0.0,0.0,0.0,0.0,0.0
1762670794.0439508,2.143773351424421e-18,-1.3104784700021256e-18,0.08439804098595055,5.0,0.0,1.5,1.3447451384786856e-17,1.759107616037096e-17,9.440466056554747e-21,2.936222098606394e-16,-2.2091016102010862e-16,1.2589286061382396,1.948481082092875e-15,2.585137252698379e-15,1.2635329527930024e-18,0.0,0.0,0.0,0.0,0.0,0.0,0.0,0.0,0.0,0.0,0.0,0.0,0.0,0.0,0.0,0.0,0.0,0.0,0.0,0.0,0.0,0.0,0.0,0.0
1762670794.0455303,2.143773351424421e-18,-1.3104784700021256e-18,0.08439804098595055,5.0,0.0,1.5,1.3447451384786856e-17,1.759107616037096e-17,9.440466056554747e-21,2.936222098606394e-16,-2.2091016102010862e-16,1.2589286061382396,1.948481082092875e-15,2.585137252698379e-15,1.2635329527930024e-18,0.0,0.0,0.0,0.0,0.0,0.0,0.0,0.0,0.0,0.0,0.0,0.0,0.0,0.0,0.0,0.0,0.0,0.0,0.0,0.0,0.0,0.0,0.0,0.0
1762670794.0472238,2.4226260244172504e-18,-1.5260350389882645e-18,0.08567562616658417,5.0,0.0,1.5,1.5361675488431064e-17,2.010375385672462e-17,1.0694390386365147e-20,2.987085641947455e-16,-2.292601959141262e-16,1.2950559872336158,2.008611134727085e-15,2.6325032255948444e-15,1.2587285727575754e-18,0.0,0.0,0.0,0.0,0.0,0.0,0.0,0.0,0.0,0.0,0.0,0.0,0.0,0.0,0.0,0.0,0.0,0.0,0.0,0.0,0.0,0.0,0.0,0.0
1762670794.048721,2.4226260244172504e-18,-1.5260350389882645e-18,0.08567562616658417,5.0,0.0,1.5,1.5361675488431064e-17,2.010375385672462e-17,1.0694390386365147e-20,2.987085641947455e-16,-2.292601959141262e-16,1.2950559872336158,2.008611134727085e-15,2.6325032255948444e-15,1.2587285727575754e-18,0.0,0.0,0.0,0.0,0.0,0.0,0.0,0.0,0.0,0.0,0.0,0.0,0.0,0.0,0.0,0.0,0.0,0.0,0.0,0.0,0.0,0.0,0.0,0.0
1762670794.0501537,2.4226260244172504e-18,-1.5260350389882645e-18,0.08567562616658417,5.0,0.0,1.5,1.5361675488431064e-17,2.010375385672462e-17,1.0694390386365147e-20,2.987085641947455e-16,-2.292601959141262e-16,1.2950559872336158,2.008611134727085e-15,2.6325032255948444e-15,1.2587285727575754e-18,0.0,0.0,0.0,0.0,0.0,0.0,0.0,0.0,0.0,0.0,0.0,0.0,0.0,0.0,0.0,0.0,0.0,0.0,0.0,0.0,0.0,0.0,0.0,0.0
1762670794.0518494,2.7061403092161826e-18,-1.7445515619339174e-18,0.08698588963477363,5.0,0.0,1.5,1.730075322271667e-17,2.2661342326196655e-17,6.159122674955829e-21,3.0222901228926105e-16,-2.336463987440051e-16,1.3243892914002093,2.0396286650871828e-15,2.666198607374732e-15,-1.638269608804253e-18,0.0,0.0,0.0,0.0,0.0,0.0,0.0,0.0,0.0,0.0,0.0,0.0,0.0,0.0,0.0,0.0,0.0,0.0,0.0,0.0,0.0,0.0,0.0,0.0
1762670794.053629,2.7061403092161826e-18,-1.7445515619339174e-18,0.08698588963477363,5.0,0.0,1.5,1.730075322271667e-17,2.2661342326196655e-17,6.159122674955829e-21,3.0222901228926105e-16,-2.336463987440051e-16,1.3243892914002093,2.0396286650871828e-15,2.666198607374732e-15,-1.638269608804253e-18,0.0,0.0,0.0,0.0,0.0,0.0,0.0,0.0,0.0,0.0,0.0,0.0,0.0,0.0,0.0,0.0,0.0,0.0,0.0,0.0,0.0,0.0,0.0,0.0
1762670794.0553133,2.7061403092161826e-18,-1.7445515619339174e-18,0.08698588963477363,5.0,0.0,1.5,1.730075322271667e-17,2.2661342326196655e-17,6.159122674955829e-21,3.0222901228926105e-16,-2.336463987440051e-16,1.3243892914002093,2.0396286650871828e-15,2.666198607374732e-15,-1.638269608804253e-18,0.0,0.0,0.0,0.0,0.0,0.0,0.0,0.0,0.0,0.0,0.0,0.0,0.0,0.0,0.0,0.0,0.0,0.0,0.0,0.0,0.0,0.0,0.0,0.0
1762670794.0573134,2.9950222101977004e-18,-1.9665546121562494e-18,0.08832234172151922,5.0,0.0,1.5,1.9263953068040897e-17,2.5261089545552477e-17,-1.2827518715799536e-21,3.0544083977972547e-16,-2.3642808821841166e-16,1.3475296895958362,2.056740391159856e-15,2.6927848794146674e-15,-4.540072040907958e-18,0.0,0.0,0.0,0.0,0.0,0.0,0.0,0.0,0.0,0.0,0.0,0.0,0.0,0.0,0.0,0.0,0.0,0.0,0.0,0.0,0.0,0.0,0.0,0.0
1762670794.0591943,2.9950222101977004e-18,-1.9665546121562494e-18,0.08832234172151922,5.0,0.0,1.5,1.9263953068040897e-17,2.5261089545552477e-17,-1.2827518715799536e-21,3.0544083977972547e-16,-2.3642808821841166e-16,1.3475296895958362,2.056740391159856e-15,2.6927848794146674e-15,-4.540072040907958e-18,0.0,0.0,0.0,0.0,0.0,0.0,0.0,0.0,0.0,0.0,0.0,0.0,0.0,0.0,0.0,0.0,0.0,0.0,0.0,0.0,0.0,0.0,0.0,0.0
1762670794.0606308,2.9950222101977004e-18,-1.9665546121562494e-18,0.08832234172151922,5.0,0.0,1.5,1.9263953068040897e-17,2.5261089545552477e-17,-1.2827518715799536e-21,3.0544083977972547e-16,-2.3642808821841166e-16,1.3475296895958362,2.056740391159856e-15,2.6927848794146674e-15,-4.540072040907958e-18,0.0,0.0,0.0,0.0,0.0,0.0,0.0,0.0,0.0,0.0,0.0,0.0,0.0,0.0,0.0,0.0,0.0,0.0,0.0,0.0,0.0,0.0,0.0,0.0
1762670794.0621843,3.2877566641956e-18,-2.192729668155424e-18,0.08967907153126993,5.0,0.0,1.5,2.12534238642776e-17,2.7896952871173404e-17,-4.612154188836786e-22,3.078490580618892e-16,-2.3885933375541037e-16,1.3650340768914333,2.0689149518378607e-15,2.713816293557349e-15,-1.859267758628421e-18,0.0,0.0,0.0,0.0,0.0,0.0,0.0,0.0,0.0,0.0,0.0,0.0,0.0,0.0,0.0,0.0,0.0,0.0,0.0,0.0,0.0,0.0,0.0,0.0
1762670794.0635855,3.2877566641956e-18,-2.192729668155424e-18,0.08967907153126993,5.0,0.0,1.5,2.12534238642776e-17,2.7896952871173404e-17,-4.612154188836786e-22,3.078490580618892e-16,-2.3885933375541037e-16,1.3650340768914333,2.0689149518378607e-15,2.713816293557349e-15,-1.859267758628421e-18,0.0,0.0,0.0,0.0,0.0,0.0,0.0,0.0,0.0,0.0,0.0,0.0,0.0,0.0,0.0,0.0,0.0,0.0,0.0,0.0,0.0,0.0,0.0,0.0
1762670794.0651069,3.2877566641956e-18,-2.192729668155424e-18,0.08967907153126993,5.0,0.0,1.5,2.12534238642776e-17,2.7896952871173404e-17,-4.612154188836786e-22,3.078490580618892e-16,-2.3885933375541037e-16,1.3650340768914333,2.0689149518378607e-15,2.713816293557349e-15,-1.859267758628421e-18,0.0,0.0,0.0,0.0,0.0,0.0,0.0,0.0,0.0,0.0,0.0,0.0,0.0,0.0,0.0,0.0,0.0,0.0,0.0,0.0,0.0,0.0,0.0,0.0
1762670794.066764,3.5790927357560114e-18,-2.4143176370610854e-18,0.09105070418845683,5.0,0.0,1.5,2.3198981473115392e-17,3.052692358229945e-17,3.074755505787068e-21,3.0728686409781615e-16,-2.36750878370458e-16,1.3774180834856704,2.044400743948269e-15,2.712065678442536e-15,8.383515984765296e-19,0.0,0.0,0.0,0.0,0.0,0.0,0.0,0.0,0.0,0.0,0.0,0.0,0.0,0.0,0.0,0.0,0.0,0.0,0.0,0.0,0.0,0.0,0.0,0.0
1762670794.068282,3.5790927357560114e-18,-2.4143176370610854e-18,0.09105070418845683,5.0,0.0,1.5,2.3198981473115392e-17,3.052692358229945e-17,3.074755505787068e-21,3.0728686409781615e-16,-2.36750878370458e-16,1.3774180834856704,2.044400743948269e-15,2.712065678442536e-15,8.383515984765296e-19,0.0,0.0,0.0,0.0,0.0,0.0,0.0,0.0,0.0,0.0,0.0,0.0,0.0,0.0,0.0,0.0,0.0,0.0,0.0,0.0,0.0,0.0,0.0,0.0
1762670794.0696924,3.5790927357560114e-18,-2.4143176370610854e-18,0.09105070418845683,5.0,0.0,1.5,2.3198981473115392e-17,3.052692358229945e-17,3.074755505787068e-21,3.0728686409781615e-16,-2.36750878370458e-16,1.3774180834856704,2.044400743948269e-15,2.712065678442536e-15,8.383515984765296e-19,0.0,0.0,0.0,0.0,0.0,0.0,0.0,0.0,0.0,0.0,0.0,0.0,0.0,0.0,0.0,0.0,0.0,0.0,0.0,0.0,0.0,0.0,0.0,0.0
1762670794.0713584,3.866420415899114e-18,-2.630086992942533e-18,0.09243236099578747,5.0,0.0,1.5,2.508772557890096e-17,3.312027210503125e-17,4.648166345709805e-21,3.039967750168221e-16,-2.318327153760351e-16,1.3851588893646227,1.995898975677085e-15,2.684323146017087e-15,1.2058812259718095e-18,0.0,0.0,0.0,0.0,0.0,0.0,0.0,0.0,0.0,0.0,0.0,0.0,0.0,0.0,0.0,0.0,0.0,0.0,0.0,0.0,0.0,0.0,0.0,0.0
1762670794.0727618,3.866420415899114e-18,-2.630086992942533e-18,0.09243236099578747,5.0,0.0,1.5,2.508772557890096e-17,3.312027210503125e-17,4.648166345709805e-21,3.039967750168221e-16,-2.318327153760351e-16,1.3851588893646227,1.995898975677085e-15,2.684323146017087e-15,1.2058812259718095e-18,0.0,0.0,0.0,0.0,0.0,0.0,0.0,0.0,0.0,0.0,0.0,0.0,0.0,0.0,0.0,0.0,0.0,0.0,0.0,0.0,0.0,0.0,0.0,0.0
1762670794.0742044,3.866420415899114e-18,-2.630086992942533e-18,0.09243236099578747,5.0,0.0,1.5,2.508772557890096e-17,3.312027210503125e-17,4.648166345709805e-21,3.039967750168221e-16,-2.318327153760351e-16,1.3851588893646227,1.995898975677085e-15,2.684323146017087e-15,1.2058812259718095e-18,0.0,0.0,0.0,0.0,0.0,0.0,0.0,0.0,0.0,0.0,0.0,0.0,0.0,0.0,0.0,0.0,0.0,0.0,0.0,0.0,0.0,0.0,0.0,0.0
1762670794.0757773,4.150340103253048e-18,-2.8441271370906047e-18,0.09381962231426319,5.0,0.0,1.5,2.6946298063287165e-17,3.568926392845818e-17,5.572995428586844e-21,2.997490111999222e-16,-2.2767052583233416e-16,1.3886978551046039,1.949470783571943e-15,2.6505914214203366e-15,1.0653551849410661e-18,0.0,0.0,0.0,0.0,0.0,0.0,0.0,0.0,0.0,0.0,0.0,0.0,0.0,0.0,0.0,0.0,0.0,0.0,0.0,0.0,0.0,0.0,0.0,0.0
1762670794.07717,4.150340103253048e-18,-2.8441271370906047e-18,0.09381962231426319,5.0,0.0,1.5,2.6946298063287165e-17,3.568926392845818e-17,5.572995428586844e-21,2.997490111999222e-16,-2.2767052583233416e-16,1.3886978551046039,1.949470783571943e-15,2.6505914214203366e-15,1.0653551849410661e-18,0.0,0.0,0.0,0.0,0.0,0.0,0.0,0.0,0.0,0.0,0.0,0.0,0.0,0.0,0.0,0.0,0.0,0.0,0.0,0.0,0.0,0.0,0.0,0.0
1762670794.0786138,4.150340103253048e-18,-2.8441271370906047e-18,0.09381962231426319,5.0,0.0,1.5,2.6946298063287165e-17,3.568926392845818e-17,5.572995428586844e-21,2.997490111999222e-16,-2.2767052583233416e-16,1.3886978551046039,1.949470783571943e-15,2.6505914214203366e-15,1.0653551849410661e-18,0.0,0.0,0.0,0.0,0.0,0.0,0.0,0.0,0.0,0.0,0.0,0.0,0.0,0.0,0.0,0.0,0.0,0.0,0.0,0.0,0.0,0.0,0.0,0.0
1762670794.0803237,4.431622207680536e-18,-3.0583631798258725e-18,0.0952084929869825,5.0,0.0,1.5,2.8792518132501406e-17,3.823791128489148e-17,1.5024271393699702e-20,2.9549694641967454e-16,-2.249481188437905e-16,1.3884429805324061,1.913678895642424e-15,2.616615941037615e-15,5.258315449147927e-18,0.0,0.0,0.0,0.0,0.0,0.0,0.0,0.0,0.0,0.0,0.0,0.0,0.0,0.0,0.0,0.0,0.0,0.0,0.0,0.0,0.0,0.0,0.0,0.0
1762670794.0818226,4.431622207680536e-18,-3.0583631798258725e-18,0.0952084929869825,5.0,0.0,1.5,2.8792518132501406e-17,3.823791128489148e-17,1.5024271393699702e-20,2.9549694641967454e-16,-2.249481188437905e-16,1.3884429805324061,1.913678895642424e-15,2.616615941037615e-15,5.258315449147927e-18,0.0,0.0,0.0,0.0,0.0,0.0,0.0,0.0,0.0,0.0,0.0,0.0,0.0,0.0,0.0,0.0,0.0,0.0,0.0,0.0,0.0,0.0,0.0,0.0
1762670794.083174,4.431622207680536e-18,-3.0583631798258725e-18,0.0952084929869825,5.0,0.0,1.5,2.8792518132501406e-17,3.823791128489148e-17,1.5024271393699702e-20,2.9549694641967454e-16,-2.249481188437905e-16,1.3884429805324061,1.913678895642424e-15,2.616615941037615e-15,5.258315449147927e-18,0.0,0.0,0.0,0.0,0.0,0.0,0.0,0.0,0.0,0.0,0.0,0.0,0.0,0.0,0.0,0.0,0.0,0.0,0.0,0.0,0.0,0.0,0.0,0.0
1762670794.0845673,4.706895550994943e-18,-3.2683488643622234e-18,0.09659537014013726,5.0,0.0,1.5,3.058049806957758e-17,4.0737957001753944e-17,2.028258683176659e-20,2.896016172826805e-16,-2.20739930730522e-16,1.3847712022220573,1.860899181218268e-15,2.5690839264014512e-15,5.258315210078956e-18,0.0,0.0,0.0,0.0,0.0,0.0,0.0,0.0,0.0,0.0,0.0,0.0,0.0,0.0,0.0,0.0,0.0,0.0,0.0,0.0,0.0,0.0,0.0,0.0
1762670794.0859547,4.706895550994943e-18,-3.2683488643622234e-18,0.09659537014013726,5.0,0.0,1.5,3.058049806957758e-17,4.0737957001753944e-17,2.028258683176659e-20,2.896016172826805e-16,-2.20739930730522e-16,1.3847712022220573,1.860899181218268e-15,2.5690839264014512e-15,5.258315210078956e-18,0.0,0.0,0.0,0.0,0.0,0.0,0.0,0.0,0.0,0.0,0.0,0.0,0.0,0.0,0.0,0.0,0.0,0.0,0.0,0.0,0.0,0.0,0.0,0.0
1762670794.0875316,4.706895550994943e-18,-3.2683488643622234e-18,0.09659537014013726,5.0,0.0,1.5,3.058049806957758e-17,4.0737957001753944e-17,2.028258683176659e-20,2.896016172826805e-16,-2.20739930730522e-16,1.3847712022220573,1.860899181218268e-15,2.5690839264014512e-15,5.258315210078956e-18,0.0,0.0,0.0,0.0,0.0,0.0,0.0,0.0,0.0,0.0,0.0,0.0,0.0,0.0,0.0,0.0,0.0,0.0,0.0,0.0,0.0,0.0,0.0,0.0
1762670794.0893698,4.976240004339867e-18,-3.475517901385056e-18,0.0979770132052383,5.0,0.0,1.5,3.232681560221467e-17,4.3189715156806986e-17,1.8823174579356625e-20,2.8299708499658393e-16,-2.165919946869984e-16,1.3780305401177457,1.808503388905614e-15,2.515572287568228e-15,1.8994512132989995e-18,0.0,0.0,0.0,0.0,0.0,0.0,0.0,0.0,0.0,0.0,0.0,0.0,0.0,0.0,0.0,0.0,0.0,0.0,0.0,0.0,0.0,0.0,0.0,0.0
1762670794.090942,4.976240004339867e-18,-3.475517901385056e-18,0.0979770132052383,5.0,0.0,1.5,3.232681560221467e-17,4.3189715156806986e-17,1.8823174579356625e-20,2.8299708499658393e-16,-2.165919946869984e-16,1.3780305401177457,1.808503388905614e-15,2.515572287568228e-15,1.8994512132989995e-18,0.0,0.0,0.0,0.0,0.0,0.0,0.0,0.0,0.0,0.0,0.0,0.0,0.0,0.0,0.0,0.0,0.0,0.0,0.0,0.0,0.0,0.0,0.0,0.0
1762670794.092286,4.976240004339867e-18,-3.475517901385056e-18,0.0979770132052383,5.0,0.0,1.5,3.232681560221467e-17,4.3189715156806986e-17,1.8823174579356625e-20,2.8299708499658393e-16,-2.165919946869984e-16,1.3780305401177457,1.808503388905614e-15,2.515572287568228e-15,1.8994512132989995e-18,0.0,0.0,0.0,0.0,0.0,0.0,0.0,0.0,0.0,0.0,0.0,0.0,0.0,0.0,0.0,0.0,0.0,0.0,0.0,0.0,0.0,0.0,0.0,0.0
1762670794.0940325,5.237123295455484e-18,-3.676088218269692e-18,0.09935051601657055,5.0,0.0,1.5,3.4013288080581187e-17,4.5572477789058497e-17,9.468437261603597e-21,2.7481370292564745e-16,-2.1062290567645498e-16,1.3685421029259968,1.7477532103815222e-15,2.4493160718640496e-15,-3.7276428796455416e-18,0.0,0.0,0.0,0.0,0.0,0.0,0.0,0.0,0.0,0.0,0.0,0.0,0.0,0.0,0.0,0.0,0.0,0.0,0.0,0.0,0.0,0.0,0.0,0.0
1762670794.095631,5.237123295455484e-18,-3.676088218269692e-18,0.09935051601657055,5.0,0.0,1.5,3.4013288080581187e-17,4.5572477789058497e-17,9.468437261603597e-21,2.7481370292564745e-16,-2.1062290567645498e-16,1.3685421029259968,1.7477532103815222e-15,2.4493160718640496e-15,-3.7276428796455416e-18,0.0,0.0,0.0,0.0,0.0,0.0,0.0,0.0,0.0,0.0,0.0,0.0,0.0,0.0,0.0,0.0,0.0,0.0,0.0,0.0,0.0,0.0,0.0,0.0
1762670794.097123,5.237123295455484e-18,-3.676088218269692e-18,0.09935051601657055,5.0,0.0,1.5,3.4013288080581187e-17,4.5572477789058497e-17,9.468437261603597e-21,2.7481370292564745e-16,-2.1062290567645498e-16,1.3685421029259968,1.7477532103815222e-15,2.4493160718640496e-15,-3.7276428796455416e-18,0.0,0.0,0.0,0.0,0.0,0.0,0.0,0.0,0.0,0.0,0.0,0.0,0.0,0.0,0.0,0.0,0.0,0.0,0.0,0.0,0.0,0.0,0.0,0.0
1762670794.0985923,5.496811891771001e-18,-3.875729002065613e-18,0.10071452666287817,5.0,0.0,1.5,3.568613040004441e-17,4.794564993184173e-17,-6.096411034798898e-23,2.700611205096094e-16,-2.0710926571875956e-16,1.3588639851855766,1.7101419743319301e-15,2.410948703151811e-15,-6.628521426358615e-18,0.0,0.0,0.0,0.0,0.0,0.0,0.0,0.0,0.0,0.0,0.0,0.0,0.0,0.0,0.0,0.0,0.0,0.0,0.0,0.0,0.0,0.0,0.0,0.0
1762670794.0999858,5.496811891771001e-18,-3.875729002065613e-18,0.10071452666287817,5.0,0.0,1.5,3.568613040004441e-17,4.794564993184173e-17,-6.096411034798898e-23,2.700611205096094e-16,-2.0710926571875956e-16,1.3588639851855766,1.7101419743319301e-15,2.410948703151811e-15,-6.628521426358615e-18,0.0,0.0,0.0,0.0,0.0,0.0,0.0,0.0,0.0,0.0,0.0,0.0,0.0,0.0,0.0,0.0,0.0,0.0,0.0,0.0,0.0,0.0,0.0,0.0
1762670794.1013517,5.496811891771001e-18,-3.875729002065613e-18,0.10071452666287817,5.0,0.0,1.5,3.568613040004441e-17,4.794564993184173e-17,-6.096411034798898e-23,2.700611205096094e-16,-2.0710926571875956e-16,1.3588639851855766,1.7101419743319301e-15,2.410948703151811e-15,-6.628521426358615e-18,0.0,0.0,0.0,0.0,0.0,0.0,0.0,0.0,0.0,0.0,0.0,0.0,0.0,0.0,0.0,0.0,0.0,0.0,0.0,0.0,0.0,0.0,0.0,0.0
1762670794.1028867,5.761132035556506e-18,-4.0787665522828454e-18,0.10206848564806374,5.0,0.0,1.5,3.739625091068582e-17,5.0356860155965485e-17,-6.6894852317405464e-21,2.700611205096093e-16,-2.0710926571875953e-16,1.3490539851855765,1.710099232865306e-15,2.4114726169217528e-15,-6.628520816527815e-18,0.0,0.0,0.0,0.0,0.0,0.0,0.0,0.0,0.0,0.0,0.0,0.0,0.0,0.0,0.0,0.0,0.0,0.0,0.0,0.0,0.0,0.0,0.0,0.0
1762670794.1043174,5.761132035556506e-18,-4.0787665522828454e-18,0.10206848564806374,5.0,0.0,1.5,3.739625091068582e-17,5.0356860155965485e-17,-6.6894852317405464e-21,2.700611205096093e-16,-2.0710926571875953e-16,1.3490539851855765,1.710099232865306e-15,2.4114726169217528e-15,-6.628520816527815e-18,0.0,0.0,0.0,0.0,0.0,0.0,0.0,0.0,0.0,0.0,0.0,0.0,0.0,0.0,0.0,0.0,0.0,0.0,0.0,0.0,0.0,0.0,0.0,0.0
1762670794.1056974,5.761132035556506e-18,-4.0787665522828454e-18,0.10206848564806374,5.0,0.0,1.5,3.739625091068582e-17,5.0356860155965485e-17,-6.6894852317405464e-21,2.700611205096093e-16,-2.0710926571875953e-16,1.3490539851855765,1.710099232865306e-15,2.4114726169217528e-15,-6.628520816527815e-18,0.0,0.0,0.0,0.0,0.0,0.0,0.0,0.0,0.0,0.0,0.0,0.0,0.0,0.0,0.0,0.0,0.0,0.0,0.0,0.0,0.0,0.0,0.0,0.0
1762670794.1072738,6.025452393497958e-18,-4.28180420294846e-18,0.10341263463324932,5.0,0.0,1.5,3.910632923300665e-17,5.27679804345918e-17,-1.3318005743605626e-20,2.7006112050960936e-16,-2.0710926571875956e-16,1.3392439851855764,1.7100575931496653e-15,2.411138820090903e-15,-6.628520207303565e-18,0.0,0.0,0.0,0.0,0.0,0.0,0.0,0.0,0.0,0.0,0.0,0.0,0.0,0.0,0.0,0.0,0.0,0.0,0.0,0.0,0.0,0.0,0.0,0.0
1762670794.1086822,6.025452393497958e-18,-4.28180420294846e-18,0.10341263463324932,5.0,0.0,1.5,3.910632923300665e-17,5.27679804345918e-17,-1.3318005743605626e-20,2.7006112050960936e-16,-2.0710926571875956e-16,1.3392439851855764,1.7100575931496653e-15,2.411138820090903e-15,-6.628520207303565e-18,0.0,0.0,0.0,0.0,0.0,0.0,0.0,0.0,0.0,0.0,0.0,0.0,0.0,0.0,0.0,0.0,0.0,0.0,0.0,0.0,0.0,0.0,0.0,0.0
1762670794.1100328,6.025452393497958e-18,-4.28180420294846e-18,0.10341263463324932,5.0,0.0,1.5,3.910632923300665e-17,5.27679804345918e-17,-1.3318005743605626e-20,2.7006112050960936e-16,-2.0710926571875956e-16,1.3392439851855764,1.7100575931496653e-15,2.411138820090903e-15,-6.628520207303565e-18,0.0,0.0,0.0,0.0,0.0,0.0,0.0,0.0,0.0,0.0,0.0,0.0,0.0,0.0,0.0,0.0,0.0,0.0,0.0,0.0,0.0,0.0,0.0,0.0
1762670794.1114438,6.2897723654170645e-18,-4.484841951471413e-18,0.1047469736184349,5.0,0.0,1.5,4.0816366455245415e-17,5.5179262842602927e-17,-1.9946525646549477e-20,2.7006112050960936e-16,-2.0710926571875953e-16,1.3294339851855763,1.7100170282695854e-15,2.4110569304980465e-15,-6.628519598685263e-18,0.0,0.0,0.0,0.0,0.0,0.0,0.0,0.0,0.0,0.0,0.0,0.0,0.0,0.0,0.0,0.0,0.0,0.0,0.0,0.0,0.0,0.0,0.0,0.0
1762670794.1128926,6.2897723654170645e-18,-4.484841951471413e-18,0.1047469736184349,5.0,0.0,1.5,4.0816366455245415e-17,5.5179262842602927e-17,-1.9946525646549477e-20,2.7006112050960936e-16,-2.0710926571875953e-16,1.3294339851855763,1.7100170282695854e-15,2.4110569304980465e-15,-6.628519598685263e-18,0.0,0.0,0.0,0.0,0.0,0.0,0.0,0.0,0.0,0.0,0.0,0.0,0.0,0.0,0.0,0.0,0.0,0.0,0.0,0.0,0.0,0.0,0.0,0.0
1762670794.114483,6.2897723654170645e-18,-4.484841951471413e-18,0.1047469736184349,5.0,0.0,1.5,4.0816366455245415e-17,5.5179262842602927e-17,-1.9946525646549477e-20,2.7006112050960936e-16,-2.0710926571875953e-16,1.3294339851855763,1.7100170282695854e-15,2.4110569304980465e-15,-6.628519598685263e-18,0.0,0.0,0.0,0.0,0.0,0.0,0.0,0.0,0.0,0.0,0.0,0.0,0.0,0.0,0.0,0.0,0.0,0.0,0.0,0.0,0.0,0.0,0.0,0.0
1762670794.1161826,6.554093113267617e-18,-4.6878797953239684e-18,0.10607150260362047,5.0,0.0,1.5,4.252636363905112e-17,5.759021935940652e-17,-2.6575044941177744e-20,2.7006112050960936e-16,-2.071092657187595e-16,1.3196239851855762,1.7099775119588474e-15,2.4108569614027383e-15,-6.628518990672306e-18,0.0,0.0,0.0,0.0,0.0,0.0,0.0,0.0,0.0,0.0,0.0,0.0,0.0,0.0,0.0,0.0,0.0,0.0,0.0,0.0,0.0,0.0,0.0,0.0
1762670794.1176467,6.554093113267617e-18,-4.6878797953239684e-18,0.10607150260362047,5.0,0.0,1.5,4.252636363905112e-17,5.759021935940652e-17,-2.6575044941177744e-20,2.7006112050960936e-16,-2.071092657187595e-16,1.3196239851855762,1.7099775119588474e-15,2.4108569614027383e-15,-6.628518990672306e-18,0.0,0.0,0.0,0.0,0.0,0.0,0.0,0.0,0.0,0.0,0.0,0.0,0.0,0.0,0.0,0.0,0.0,0.0,0.0,0.0,0.0,0.0,0.0,0.0
1762670794.1189525,6.554093113267617e-18,-4.6878797953239684e-18,0.10607150260362047,5.0,0.0,1.5,4.252636363905112e-17,5.759021935940652e-17,-2.6575044941177744e-20,2.7006112050960936e-16,-2.071092657187595e-16,1.3196239851855762,1.7099775119588474e-15,2.4108569614027383e-15,-6.628518990672306e-18,0.0,0.0,0.0,0.0,0.0,0.0,0.0,0.0,0.0,0.0,0.0,0.0,0.0,0.0,0.0,0.0,0.0,0.0,0.0,0.0,0.0,0.0,0.0,0.0
1762670794.120473,6.818414331153977e-18,-4.8909177320401726e-18,0.10738622158880605,5.0,0.0,1.5,4.423632182012463e-17,6.000097846117117e-17,-3.320356362809547e-20,2.700611205096094e-16,-2.0710926571875953e-16,1.3098139851855761,1.7099390185848272e-15,2.4106620798447135e-15,-6.628518383264093e-18,0.0,0.0,0.0,0.0,0.0,0.0,0.0,0.0,0.0,0.0,0.0,0.0,0.0,0.0,0.0,0.0,0.0,0.0,0.0,0.0,0.0,0.0,0.0,0.0
1762670794.1220748,6.818414331153977e-18,-4.8909177320401726e-18,0.10738622158880605,5.0,0.0,1.5,4.423632182012463e-17,6.000097846117117e-17,-3.320356362809547e-20,2.700611205096094e-16,-2.0710926571875953e-16,1.3098139851855761,1.7099390185848272e-15,2.4106620798447135e-15,-6.628518383264093e-18,0.0,0.0,0.0,0.0,0.0,0.0,0.0,0.0,0.0,0.0,0.0,0.0,0.0,0.0,0.0,0.0,0.0,0.0,0.0,0.0,0.0,0.0,0.0,0.0
1762670794.1238067,6.818414331153977e-18,-4.8909177320401726e-18,0.10738622158880605,5.0,0.0,1.5,4.423632182012463e-17,6.000097846117117e-17,-3.320356362809547e-20,2.700611205096094e-16,-2.0710926571875953e-16,1.3098139851855761,1.7099390185848272e-15,2.4106620798447135e-15,-6.628518383264093e-18,0.0,0.0,0.0,0.0,0.0,0.0,0.0,0.0,0.0,0.0,0.0,0.0,0.0,0.0,0.0,0.0,0.0,0.0,0.0,0.0,0.0,0.0,0.0,0.0
1762670794.1255093,7.082736007108756e-18,-5.09395575921436e-18,0.10869113057399163,5.0,0.0,1.5,4.594624200884462e-17,6.24115451742e-17,-3.983208170790711e-20,2.700611205096094e-16,-2.0710926571875956e-16,1.300003985185576,1.7099015231332604e-15,2.4104721638419533e-15,-6.628517776460021e-18,0.0,0.0,0.0,0.0,0.0,0.0,0.0,0.0,0.0,0.0,0.0,0.0,0.0,0.0,0.0,0.0,0.0,0.0,0.0,0.0,0.0,0.0,0.0,0.0
1762670794.1269336,7.082736007108756e-18,-5.09395575921436e-18,0.10869113057399163,5.0,0.0,1.5,4.594624200884462e-17,6.24115451742e-17,-3.983208170790711e-20,2.700611205096094e-16,-2.0710926571875956e-16,1.300003985185576,1.7099015231332604e-15,2.4104721638419533e-15,-6.628517776460021e-18,0.0,0.0,0.0,0.0,0.0,0.0,0.0,0.0,0.0,0.0,0.0,0.0,0.0,0.0,0.0,0.0,0.0,0.0,0.0,0.0,0.0,0.0,0.0,0.0
1762670794.1284628,7.082736007108756e-18,-5.09395575921436e-18,0.10869113057399163,5.0,0.0,1.5,4.594624200884462e-17,6.24115451742e-17,-3.983208170790711e-20,2.700611205096094e-16,-2.0710926571875956e-16,1.300003985185576,1.7099015231332604e-15,2.4104721638419533e-15,-6.628517776460021e-18,0.0,0.0,0.0,0.0,0.0,0.0,0.0,0.0,0.0,0.0,0.0,0.0,0.0,0.0,0.0,0.0,0.0,0.0,0.0,0.0,0.0,0.0,0.0,0.0
1762670794.1301465,7.347058129451553e-18,-5.296993874499706e-18,0.10998622955917721,5.0,0.0,1.5,4.765612519087849e-17,6.482192440426136e-17,-4.646059918121648e-20,2.700611205096094e-16,-2.071092657187595e-16,1.290193985185576,1.7098650011933738e-15,2.410287094295439e-15,-6.6285171702594894e-18,0.0,0.0,0.0,0.0,0.0,0.0,0.0,0.0,0.0,0.0,0.0,0.0,0.0,0.0,0.0,0.0,0.0,0.0,0.0,0.0,0.0,0.0,0.0,0.0
1762670794.1316478,7.347058129451553e-18,-5.296993874499706e-18,0.10998622955917721,5.0,0.0,1.5,4.765612519087849e-17,6.482192440426136e-17,-4.646059918121648e-20,2.700611205096094e-16,-2.071092657187595e-16,1.290193985185576,1.7098650011933738e-15,2.410287094295439e-15,-6.6285171702594894e-18,0.0,0.0,0.0,0.0,0.0,0.0,0.0,0.0,0.0,0.0,0.0,0.0,0.0,0.0,0.0,0.0,0.0,0.0,0.0,0.0,0.0,0.0,0.0,0.0
1762670794.133028,7.347058129451553e-18,-5.296993874499706e-18,0.10998622955917721,5.0,0.0,1.5,4.765612519087849e-17,6.482192440426136e-17,-4.646059918121648e-20,2.700611205096094e-16,-2.071092657187595e-16,1.290193985185576,1.7098650011933738e-15,2.410287094295439e-15,-6.6285171702594894e-18,0.0,0.0,0.0,0.0,0.0,0.0,0.0,0.0,0.0,0.0,0.0,0.0,0.0,0.0,0.0,0.0,0.0,0.0,0.0,0.0,0.0,0.0,0.0,0.0
1762670794.1344635,7.61138068678217e-18,-5.5000339761475776e-18,0.11127151854436279,5.0,0.0,1.5,4.93651741006514e-17,6.723212093943771e-17,-5.3089116048626844e-20,2.7006112050960946e-16,-2.0710926571875953e-16,1.2803839851855758,1.708233002790276e-15,2.410106754921261e-15,-6.628516564661899e-18,0.0,0.0,0.0,0.0,0.0,0.0,0.0,0.0,0.0,0.0,0.0,0.0,0.0,0.0,0.0,0.0,0.0,0.0,0.0,0.0,0.0,0.0,0.0,0.0
1762670794.1357,7.61138068678217e-18,-5.5000339761475776e-18,0.11127151854436279,5.0,0.0,1.5,4.93651741006514e-17,6.723212093943771e-17,-5.3089116048626844e-20,2.7006112050960946e-16,-2.0710926571875953e-16,1.2803839851855758,1.708233002790276e-15,2.410106754921261e-15,-6.628516564661899e-18,0.0,0.0,0.0,0.0,0.0,0.0,0.0,0.0,0.0,0.0,0.0,0.0,0.0,0.0,0.0,0.0,0.0,0.0,0.0,0.0,0.0,0.0,0.0,0.0
1762670794.137016,7.61138068678217e-18,-5.5000339761475776e-18,0.11127151854436279,5.0,0.0,1.5,4.93651741006514e-17,6.723212093943771e-17,-5.3089116048626844e-20,2.7006112050960946e-16,-2.0710926571875953e-16,1.2803839851855758,1.708233002790276e-15,2.410106754921261e-15,-6.628516564661899e-18,0.0,0.0,0.0,0.0,0.0,0.0,0.0,0.0,0.0,0.0,0.0,0.0,0.0,0.0,0.0,0.0,0.0,0.0,0.0,0.0,0.0,0.0,0.0,0.0
1762670794.1385996,7.875702787193018e-18,-5.7030766952947776e-18,0.11254699752954837,5.0,0.0,1.5,5.107312366070633e-17,6.96425093809169e-17,-5.971763231074084e-20,2.700611205096094e-16,-2.071092657187595e-16,1.2705739851855757,1.7068680424699008e-15,2.4106708373986748e-15,-6.628515959666648e-18,0.0,0.0,0.0,0.0,0.0,0.0,0.0,0.0,0.0,0.0,0.0,0.0,0.0,0.0,0.0,0.0,0.0,0.0,0.0,0.0,0.0,0.0,0.0,0.0
1762670794.1402552,7.875702787193018e-18,-5.7030766952947776e-18,0.11254699752954837,5.0,0.0,1.5,5.107312366070633e-17,6.96425093809169e-17,-5.971763231074084e-20,2.700611205096094e-16,-2.071092657187595e-16,1.2705739851855757,1.7068680424699008e-15,2.4106708373986748e-15,-6.628515959666648e-18,0.0,0.0,0.0,0.0,0.0,0.0,0.0,0.0,0.0,0.0,0.0,0.0,0.0,0.0,0.0,0.0,0.0,0.0,0.0,0.0,0.0,0.0,0.0,0.0
1762670794.141803,7.875702787193018e-18,-5.7030766952947776e-18,0.11254699752954837,5.0,0.0,1.5,5.107312366070633e-17,6.96425093809169e-17,-5.971763231074084e-20,2.700611205096094e-16,-2.071092657187595e-16,1.2705739851855757,1.7068680424699008e-15,2.4106708373986748e-15,-6.628515959666648e-18,0.0,0.0,0.0,0.0,0.0,0.0,0.0,0.0,0.0,0.0,0.0,0.0,0.0,0.0,0.0,0.0,0.0,0.0,0.0,0.0,0.0,0.0,0.0,0.0
1762670794.143278,8.140024126490267e-18,-5.9061239302298354e-18,0.11381266651473394,5.0,0.0,1.5,5.277917658986115e-17,7.205321749010806e-17,-6.634614796816048e-20,2.700611205096094e-16,-2.0710926571875956e-16,1.2607639851855756,1.7052379734394235e-15,2.4111160513144304e-15,-6.628515355273139e-18,0.0,0.0,0.0,0.0,0.0,0.0,0.0,0.0,0.0,0.0,0.0,0.0,0.0,0.0,0.0,0.0,0.0,0.0,0.0,0.0,0.0,0.0,0.0,0.0
1762670794.1446743,8.140024126490267e-18,-5.9061239302298354e-18,0.11381266651473394,5.0,0.0,1.5,5.277917658986115e-17,7.205321749010806e-17,-6.634614796816048e-20,2.700611205096094e-16,-2.0710926571875956e-16,1.2607639851855756,1.7052379734394235e-15,2.4111160513144304e-15,-6.628515355273139e-18,0.0,0.0,0.0,0.0,0.0,0.0,0.0,0.0,0.0,0.0,0.0,0.0,0.0,0.0,0.0,0.0,0.0,0.0,0.0,0.0,0.0,0.0,0.0,0.0
1762670794.1461964,8.140024126490267e-18,-5.9061239302298354e-18,0.11381266651473394,5.0,0.0,1.5,5.277917658986115e-17,7.205321749010806e-17,-6.634614796816048e-20,2.700611205096094e-16,-2.0710926571875956e-16,1.2607639851855756,1.7052379734394235e-15,2.4111160513144304e-15,-6.628515355273139e-18,0.0,0.0,0.0,0.0,0.0,0.0,0.0,0.0,0.0,0.0,0.0,0.0,0.0,0.0,0.0,0.0,0.0,0.0,0.0,0.0,0.0,0.0,0.0,0.0
1762670794.1476014,8.404344987721607e-18,-6.109175045165243e-18,0.11506852549991951,5.0,0.0,1.5,5.4483599918868687e-17,7.446412638698199e-17,-7.297466302148723e-20,2.700611205096094e-16,-2.071092657187595e-16,1.2509539851855755,1.703608838307352e-15,2.4108257592483727e-15,-6.6285147514807735e-18,0.0,0.0,0.0,0.0,0.0,0.0,0.0,0.0,0.0,0.0,0.0,0.0,0.0,0.0,0.0,0.0,0.0,0.0,0.0,0.0,0.0,0.0,0.0,0.0
1762670794.148962,8.404344987721607e-18,-6.109175045165243e-18,0.11506852549991951,5.0,0.0,1.5,5.4483599918868687e-17,7.446412638698199e-17,-7.297466302148723e-20,2.700611205096094e-16,-2.071092657187595e-16,1.2509539851855755,1.703608838307352e-15,2.4108257592483727e-15,-6.6285147514807735e-18,0.0,0.0,0.0,0.0,0.0,0.0,0.0,0.0,0.0,0.0,0.0,0.0,0.0,0.0,0.0,0.0,0.0,0.0,0.0,0.0,0.0,0.0,0.0,0.0
1762670794.1502852,8.404344987721607e-18,-6.109175045165243e-18,0.11506852549991951,5.0,0.0,1.5,5.4483599918868687e-17,7.446412638698199e-17,-7.297466302148723e-20,2.700611205096094e-16,-2.071092657187595e-16,1.2509539851855755,1.703608838307352e-15,2.4108257592483727e-15,-6.6285147514807735e-18,0.0,0.0,0.0,0.0,0.0,0.0,0.0,0.0,0.0,0.0,0.0,0.0,0.0,0.0,0.0,0.0,0.0,0.0,0.0,0.0,0.0,0.0,0.0,0.0
1762670794.1515813,8.66866624141626e-18,-6.3122300379048376e-18,0.11631457448510509,5.0,0.0,1.5,5.618639457011799e-17,7.687487044926359e-17,-7.960317747132196e-20,2.7006112050960946e-16,-2.0710926571875956e-16,1.2411439851855754,1.7019806141484164e-15,2.4106630726632242e-15,-6.628514148288953e-18,0.0,0.0,0.0,0.0,0.0,0.0,0.0,0.0,0.0,0.0,0.0,0.0,0.0,0.0,0.0,0.0,0.0,0.0,0.0,0.0,0.0,0.0,0.0,0.0
1762670794.153012,8.66866624141626e-18,-6.3122300379048376e-18,0.11631457448510509,5.0,0.0,1.5,5.618639457011799e-17,7.687487044926359e-17,-7.960317747132196e-20,2.7006112050960946e-16,-2.0710926571875956e-16,1.2411439851855754,1.7019806141484164e-15,2.4106630726632242e-15,-6.628514148288953e-18,0.0,0.0,0.0,0.0,0.0,0.0,0.0,0.0,0.0,0.0,0.0,0.0,0.0,0.0,0.0,0.0,0.0,0.0,0.0,0.0,0.0,0.0,0.0,0.0
1762670794.1545756,8.66866624141626e-18,-6.3122300379048376e-18,0.11631457448510509,5.0,0.0,1.5,5.618639457011799e-17,7.687487044926359e-17,-7.960317747132196e-20,2.7006112050960946e-16,-2.0710926571875956e-16,1.2411439851855754,1.7019806141484164e-15,2.4106630726632242e-15,-6.628514148288953e-18,0.0,0.0,0.0,0.0,0.0,0.0,0.0,0.0,0.0,0.0,0.0,0.0,0.0,0.0,0.0,0.0,0.0,0.0,0.0,0.0,0.0,0.0,0.0,0.0
1762670794.1562576,8.932987877448421e-18,-6.515287005765598e-18,0.11755081347029066,5.0,0.0,1.5,5.788835967047794e-17,7.928545392979216e-17,-8.623169131826486e-20,2.700611205096094e-16,-2.071092657187595e-16,1.2313339851855754,1.701949704744061e-15,2.4105045787352477e-15,-6.62851354569708e-18,0.0,0.0,0.0,0.0,0.0,0.0,0.0,0.0,0.0,0.0,0.0,0.0,0.0,0.0,0.0,0.0,0.0,0.0,0.0,0.0,0.0,0.0,0.0,0.0
1762670794.1576135,8.932987877448421e-18,-6.515287005765598e-18,0.11755081347029066,5.0,0.0,1.5,5.788835967047794e-17,7.928545392979216e-17,-8.623169131826486e-20,2.700611205096094e-16,-2.071092657187595e-16,1.2313339851855754,1.701949704744061e-15,2.4105045787352477e-15,-6.62851354569708e-18,0.0,0.0,0.0,0.0,0.0,0.0,0.0,0.0,0.0,0.0,0.0,0.0,0.0,0.0,0.0,0.0,0.0,0.0,0.0,0.0,0.0,0.0,0.0,0.0
1762670794.1589205,8.932987877448421e-18,-6.515287005765598e-18,0.11755081347029066,5.0,0.0,1.5,5.788835967047794e-17,7.928545392979216e-17,-8.623169131826486e-20,2.700611205096094e-16,-2.071092657187595e-16,1.2313339851855754,1.701949704744061e-15,2.4105045787352477e-15,-6.62851354569708e-18,0.0,0.0,0.0,0.0,0.0,0.0,0.0,0.0,0.0,0.0,0.0,0.0,0.0,0.0,0.0,0.0,0.0,0.0,0.0,0.0,0.0,0.0,0.0,0.0
1762670794.1602561,9.197309885956081e-18,-6.718345313287719e-18,0.11877724245547623,5.0,0.0,1.5,5.958976211306591e-17,8.169588097061073e-17,-9.286020456291562e-20,2.7006112050960946e-16,-2.0710926571875956e-16,1.2215239851855753,1.7016535504700212e-15,2.410350176638346e-15,-6.628512943704559e-18,0.0,0.0,0.0,0.0,0.0,0.0,0.0,0.0,0.0,0.0,0.0,0.0,0.0,0.0,0.0,0.0,0.0,0.0,0.0,0.0,0.0,0.0,0.0,0.0
1762670794.1616685,9.197309885956081e-18,-6.718345313287719e-18,0.11877724245547623,5.0,0.0,1.5,5.958976211306591e-17,8.169588097061073e-17,-9.286020456291562e-20,2.7006112050960946e-16,-2.0710926571875956e-16,1.2215239851855753,1.7016535504700212e-15,2.410350176638346e-15,-6.628512943704559e-18,0.0,0.0,0.0,0.0,0.0,0.0,0.0,0.0,0.0,0.0,0.0,0.0,0.0,0.0,0.0,0.0,0.0,0.0,0.0,0.0,0.0,0.0,0.0,0.0
1762670794.163141,9.197309885956081e-18,-6.718345313287719e-18,0.11877724245547623,5.0,0.0,1.5,5.958976211306591e-17,8.169588097061073e-17,-9.286020456291562e-20,2.7006112050960946e-16,-2.0710926571875956e-16,1.2215239851855753,1.7016535504700212e-15,2.410350176638346e-15,-6.628512943704559e-18,0.0,0.0,0.0,0.0,0.0,0.0,0.0,0.0,0.0,0.0,0.0,0.0,0.0,0.0,0.0,0.0,0.0,0.0,0.0,0.0,0.0,0.0,0.0,0.0
1762670794.1646008,9.461632257314445e-18,-6.9214030579657005e-18,0.1199938614406618,5.0,0.0,1.5,6.129140095019249e-17,8.410615561413331e-17,-9.948871720587329e-20,2.7006112050960936e-16,-2.0710926571875953e-16,1.2117139851855752,1.701624254129091e-15,2.410199767931193e-15,-6.628512342310792e-18,0.0,0.0,0.0,0.0,0.0,0.0,0.0,0.0,0.0,0.0,0.0,0.0,0.0,0.0,0.0,0.0,0.0,0.0,0.0,0.0,0.0,0.0,0.0,0.0
1762670794.1659322,9.461632257314445e-18,-6.9214030579657005e-18,0.1199938614406618,5.0,0.0,1.5,6.129140095019249e-17,8.410615561413331e-17,-9.948871720587329e-20,2.7006112050960936e-16,-2.0710926571875953e-16,1.2117139851855752,1.701624254129091e-15,2.410199767931193e-15,-6.628512342310792e-18,0.0,0.0,0.0,0.0,0.0,0.0,0.0,0.0,0.0,0.0,0.0,0.0,0.0,0.0,0.0,0.0,0.0,0.0,0.0,0.0,0.0,0.0,0.0,0.0
1762670794.167277,9.461632257314445e-18,-6.9214030579657005e-18,0.1199938614406618,5.0,0.0,1.5,6.129140095019249e-17,8.410615561413331e-17,-9.948871720587329e-20,2.7006112050960936e-16,-2.0710926571875953e-16,1.2117139851855752,1.701624254129091e-15,2.410199767931193e-15,-6.628512342310792e-18,0.0,0.0,0.0,0.0,0.0,0.0,0.0,0.0,0.0,0.0,0.0,0.0,0.0,0.0,0.0,0.0,0.0,0.0,0.0,0.0,0.0,0.0,0.0,0.0
1762670794.1685667,9.725954982130322e-18,-7.124460871473546e-18,0.12120067042584738,5.0,0.0,1.5,6.299301087877647e-17,8.651628180550153e-17,-1.0611722924773631e-19,2.700611205096094e-16,-2.0710926571875956e-16,1.201903985185575,1.7015957301848578e-15,2.410053256501064e-15,-6.6285117415151845e-18,0.0,0.0,0.0,0.0,0.0,0.0,0.0,0.0,0.0,0.0,0.0,0.0,0.0,0.0,0.0,0.0,0.0,0.0,0.0,0.0,0.0,0.0,0.0,0.0
1762670794.1699085,9.725954982130322e-18,-7.124460871473546e-18,0.12120067042584738,5.0,0.0,1.5,6.299301087877647e-17,8.651628180550153e-17,-1.0611722924773631e-19,2.700611205096094e-16,-2.0710926571875956e-16,1.201903985185575,1.7015957301848578e-15,2.410053256501064e-15,-6.6285117415151845e-18,0.0,0.0,0.0,0.0,0.0,0.0,0.0,0.0,0.0,0.0,0.0,0.0,0.0,0.0,0.0,0.0,0.0,0.0,0.0,0.0,0.0,0.0,0.0,0.0
1762670794.1712897,9.725954982130322e-18,-7.124460871473546e-18,0.12120067042584738,5.0,0.0,1.5,6.299301087877647e-17,8.651628180550153e-17,-1.0611722924773631e-19,2.700611205096094e-16,-2.0710926571875956e-16,1.201903985185575,1.7015957301848578e-15,2.410053256501064e-15,-6.6285117415151845e-18,0.0,0.0,0.0,0.0,0.0,0.0,0.0,0.0,0.0,0.0,0.0,0.0,0.0,0.0,0.0,0.0,0.0,0.0,0.0,0.0,0.0,0.0,0.0,0.0
1762670794.1726344,9.990278051236636e-18,-7.327518751994885e-18,0.12239766941103296,5.0,0.0,1.5,6.469459266169288e-17,8.89262633948857e-17,-1.1274574068910256e-19,2.7006112050960936e-16,-2.071092657187595e-16,1.192093985185575,1.701567959671268e-15,2.4099105485089875e-15,-6.6285111413171425e-18,0.0,0.0,0.0,0.0,0.0,0.0,0.0,0.0,0.0,0.0,0.0,0.0,0.0,0.0,0.0,0.0,0.0,0.0,0.0,0.0,0.0,0.0,0.0,0.0
1762670794.173941,9.990278051236636e-18,-7.327518751994885e-18,0.12239766941103296,5.0,0.0,1.5,6.469459266169288e-17,8.89262633948857e-17,-1.1274574068910256e-19,2.7006112050960936e-16,-2.071092657187595e-16,1.192093985185575,1.701567959671268e-15,2.4099105485089875e-15,-6.6285111413171425e-18,0.0,0.0,0.0,0.0,0.0,0.0,0.0,0.0,0.0,0.0,0.0,0.0,0.0,0.0,0.0,0.0,0.0,0.0,0.0,0.0,0.0,0.0,0.0,0.0
1762670794.175158,9.990278051236636e-18,-7.327518751994885e-18,0.12239766941103296,5.0,0.0,1.5,6.469459266169288e-17,8.89262633948857e-17,-1.1274574068910256e-19,2.7006112050960936e-16,-2.071092657187595e-16,1.192093985185575,1.701567959671268e-15,2.4099105485089875e-15,-6.6285111413171425e-18,0.0,0.0,0.0,0.0,0.0,0.0,0.0,0.0,0.0,0.0,0.0,0.0,0.0,0.0,0.0,0.0,0.0,0.0,0.0,0.0,0.0,0.0,0.0,0.0
1762670794.1764898,1.0254600281392844e-17,-7.530576697757958e-18,0.12358485839621854,5.0,0.0,1.5,6.639614704308064e-17,9.133659734331388e-17,-1.1937425153056929e-19,2.700611205096094e-16,-2.0710926571875953e-16,1.1822839851855749,1.7015409240803046e-15,2.4106346507975623e-15,-6.6285105417160695e-18,0.0,0.0,0.0,0.0,0.0,0.0,0.0,0.0,0.0,0.0,0.0,0.0,0.0,0.0,0.0,0.0,0.0,0.0,0.0,0.0,0.0,0.0,0.0,0.0
1762670794.1777422,1.0254600281392844e-17,-7.530576697757958e-18,0.12358485839621854,5.0,0.0,1.5,6.639614704308064e-17,9.133659734331388e-17,-1.1937425153056929e-19,2.700611205096094e-16,-2.0710926571875953e-16,1.1822839851855749,1.7015409240803046e-15,2.4106346507975623e-15,-6.6285105417160695e-18,0.0,0.0,0.0,0.0,0.0,0.0,0.0,0.0,0.0,0.0,0.0,0.0,0.0,0.0,0.0,0.0,0.0,0.0,0.0,0.0,0.0,0.0,0.0,0.0
1762670794.17908,1.0254600281392844e-17,-7.530576697757958e-18,0.12358485839621854,5.0,0.0,1.5,6.639614704308064e-17,9.133659734331388e-17,-1.1937425153056929e-19,2.700611205096094e-16,-2.0710926571875953e-16,1.1822839851855749,1.7015409240803046e-15,2.4106346507975623e-15,-6.6285105417160695e-18,0.0,0.0,0.0,0.0,0.0,0.0,0.0,0.0,0.0,0.0,0.0,0.0,0.0,0.0,0.0,0.0,0.0,0.0,0.0,0.0,0.0,0.0,0.0,0.0
1762670794.1805449,1.0518922516835732e-17,-7.73363660757532e-18,0.12476223738140411,5.0,0.0,1.5,6.809687652166799e-17,9.374692907133701e-17,-1.2600276177273315e-19,2.7006112050960936e-16,-2.0710926571875948e-16,1.1724739851855748,1.699918179197872e-15,2.410180592724441e-15,-6.6285099427113745e-18,0.0,0.0,0.0,0.0,0.0,0.0,0.0,0.0,0.0,0.0,0.0,0.0,0.0,0.0,0.0,0.0,0.0,0.0,0.0,0.0,0.0,0.0,0.0,0.0
1762670794.1818535,1.0518922516835732e-17,-7.73363660757532e-18,0.12476223738140411,5.0,0.0,1.5,6.809687652166799e-17,9.374692907133701e-17,-1.2600276177273315e-19,2.7006112050960936e-16,-2.0710926571875948e-16,1.1724739851855748,1.699918179197872e-15,2.410180592724441e-15,-6.6285099427113745e-18,0.0,0.0,0.0,0.0,0.0,0.0,0.0,0.0,0.0,0.0,0.0,0.0,0.0,0.0,0.0,0.0,0.0,0.0,0.0,0.0,0.0,0.0,0.0,0.0
1762670794.1830916,1.0518922516835732e-17,-7.73363660757532e-18,0.12476223738140411,5.0,0.0,1.5,6.809687652166799e-17,9.374692907133701e-17,-1.2600276177273315e-19,2.7006112050960936e-16,-2.0710926571875948e-16,1.1724739851855748,1.699918179197872e-15,2.410180592724441e-15,-6.6285099427113745e-18,0.0,0.0,0.0,0.0,0.0,0.0,0.0,0.0,0.0,0.0,0.0,0.0,0.0,0.0,0.0,0.0,0.0,0.0,0.0,0.0,0.0,0.0,0.0,0.0
1762670794.1844163,1.0783245203435784e-17,-7.936699113131403e-18,0.12592980636658968,5.0,0.0,1.5,6.979651578999214e-17,9.615707131335117e-17,-1.326312714161903e-19,2.7006112050960936e-16,-2.0710926571875953e-16,1.1626639851855747,1.6985622451921503e-15,2.410076578826384e-15,-6.628509344302461e-18,0.0,0.0,0.0,0.0,0.0,0.0,0.0,0.0,0.0,0.0,0.0,0.0,0.0,0.0,0.0,0.0,0.0,0.0,0.0,0.0,0.0,0.0,0.0,0.0
1762670794.1856158,1.0783245203435784e-17,-7.936699113131403e-18,0.12592980636658968,5.0,0.0,1.5,6.979651578999214e-17,9.615707131335117e-17,-1.326312714161903e-19,2.7006112050960936e-16,-2.0710926571875953e-16,1.1626639851855747,1.6985622451921503e-15,2.410076578826384e-15,-6.628509344302461e-18,0.0,0.0,0.0,0.0,0.0,0.0,0.0,0.0,0.0,0.0,0.0,0.0,0.0,0.0,0.0,0.0,0.0,0.0,0.0,0.0,0.0,0.0,0.0,0.0
1762670794.1868997,1.0783245203435784e-17,-7.936699113131403e-18,0.12592980636658968,5.0,0.0,1.5,6.979651578999214e-17,9.615707131335117e-17,-1.326312714161903e-19,2.7006112050960936e-16,-2.0710926571875953e-16,1.1626639851855747,1.6985622451921503e-15,2.410076578826384e-15,-6.628509344302461e-18,0.0,0.0,0.0,0.0,0.0,0.0,0.0,0.0,0.0,0.0,0.0,0.0,0.0,0.0,0.0,0.0,0.0,0.0,0.0,0.0,0.0,0.0,0.0,0.0
1762670794.1884477,1.1047568199983167e-17,-8.139766113249144e-18,0.12708756535177526,5.0,0.0,1.5,7.149426734241962e-17,9.856708337748575e-17,-1.3925978046153617e-19,2.7006112050960936e-16,-2.071092657187595e-16,1.1528539851855746,1.69694098075734e-15,2.4099481177413575e-15,-6.628508746488738e-18,0.0,0.0,0.0,0.0,0.0,0.0,0.0,0.0,0.0,0.0,0.0,0.0,0.0,0.0,0.0,0.0,0.0,0.0,0.0,0.0,0.0,0.0,0.0,0.0
1762670794.1898746,1.1047568199983167e-17,-8.139766113249144e-18,0.12708756535177526,5.0,0.0,1.5,7.149426734241962e-17,9.856708337748575e-17,-1.3925978046153617e-19,2.7006112050960936e-16,-2.071092657187595e-16,1.1528539851855746,1.69694098075734e-15,2.4099481177413575e-15,-6.628508746488738e-18,0.0,0.0,0.0,0.0,0.0,0.0,0.0,0.0,0.0,0.0,0.0,0.0,0.0,0.0,0.0,0.0,0.0,0.0,0.0,0.0,0.0,0.0,0.0,0.0
1762670794.191237,1.1047568199983167e-17,-8.139766113249144e-18,0.12708756535177526,5.0,0.0,1.5,7.149426734241962e-17,9.856708337748575e-17,-1.3925978046153617e-19,2.7006112050960936e-16,-2.071092657187595e-16,1.1528539851855746,1.69694098075734e-15,2.4099481177413575e-15,-6.628508746488738e-18,0.0,0.0,0.0,0.0,0.0,0.0,0.0,0.0,0.0,0.0,0.0,0.0,0.0,0.0,0.0,0.0,0.0,0.0,0.0,0.0,0.0,0.0,0.0,0.0
1762670794.1925714,1.1311891498364057e-17,-8.34283697266254e-18,0.12823551433696084,5.0,0.0,1.5,7.319039799067264e-17,1.009769686715476e-16,-1.4588828890936566e-19,2.7006112050960936e-16,-2.0710926571875953e-16,1.1430439851855745,1.6953204338570035e-15,2.409823024963792e-15,-6.6285081492696146e-18,0.0,0.0,0.0,0.0,0.0,0.0,0.0,0.0,0.0,0.0,0.0,0.0,0.0,0.0,0.0,0.0,0.0,0.0,0.0,0.0,0.0,0.0,0.0,0.0
1762670794.1938775,1.1311891498364057e-17,-8.34283697266254e-18,0.12823551433696084,5.0,0.0,1.5,7.319039799067264e-17,1.009769686715476e-16,-1.4588828890936566e-19,2.7006112050960936e-16,-2.0710926571875953e-16,1.1430439851855745,1.6953204338570035e-15,2.409823024963792e-15,-6.6285081492696146e-18,0.0,0.0,0.0,0.0,0.0,0.0,0.0,0.0,0.0,0.0,0.0,0.0,0.0,0.0,0.0,0.0,0.0,0.0,0.0,0.0,0.0,0.0,0.0,0.0
1762670794.1951444,1.1311891498364057e-17,-8.34283697266254e-18,0.12823551433696084,5.0,0.0,1.5,7.319039799067264e-17,1.009769686715476e-16,-1.4588828890936566e-19,2.7006112050960936e-16,-2.0710926571875953e-16,1.1430439851855745,1.6953204338570035e-15,2.409823024963792e-15,-6.6285081492696146e-18,0.0,0.0,0.0,0.0,0.0,0.0,0.0,0.0,0.0,0.0,0.0,0.0,0.0,0.0,0.0,0.0,0.0,0.0,0.0,0.0,0.0,0.0,0.0,0.0
1762670794.1966124,1.1576215090655873e-17,-8.54591168968433e-18,0.12937365332214643,5.0,0.0,1.5,7.488490844340009e-17,1.0338673052302147e-16,-1.5251679676027304e-19,2.7006112050960926e-16,-2.0710926571875948e-16,1.1332339851855744,1.6937005867921243e-15,2.409701219172984e-15,-6.6285075526444985e-18,0.0,0.0,0.0,0.0,0.0,0.0,0.0,0.0,0.0,0.0,0.0,0.0,0.0,0.0,0.0,0.0,0.0,0.0,0.0,0.0,0.0,0.0,0.0,0.0
1762670794.19801,1.1576215090655873e-17,-8.54591168968433e-18,0.12937365332214643,5.0,0.0,1.5,7.488490844340009e-17,1.0338673052302147e-16,-1.5251679676027304e-19,2.7006112050960926e-16,-2.0710926571875948e-16,1.1332339851855744,1.6937005867921243e-15,2.409701219172984e-15,-6.6285075526444985e-18,0.0,0.0,0.0,0.0,0.0,0.0,0.0,0.0,0.0,0.0,0.0,0.0,0.0,0.0,0.0,0.0,0.0,0.0,0.0,0.0,0.0,0.0,0.0,0.0
1762670794.1992555,1.1576215090655873e-17,-8.54591168968433e-18,0.12937365332214643,5.0,0.0,1.5,7.488490844340009e-17,1.0338673052302147e-16,-1.5251679676027304e-19,2.7006112050960926e-16,-2.0710926571875948e-16,1.1332339851855744,1.6937005867921243e-15,2.409701219172984e-15,-6.6285075526444985e-18,0.0,0.0,0.0,0.0,0.0,0.0,0.0,0.0,0.0,0.0,0.0,0.0,0.0,0.0,0.0,0.0,0.0,0.0,0.0,0.0,0.0,0.0,0.0,0.0
1762670794.2006123,1.1840538969127348e-17,-8.748990262668883e-18,0.130501982307332,5.0,0.0,1.5,7.65777993917666e-17,1.0579637217903785e-16,-1.591453040148521e-19,2.700611205096093e-16,-2.071092657187595e-16,1.1234239851855743,1.692081422291596e-15,2.4095826209735403e-15,-6.628506956612799e-18,0.0,0.0,0.0,0.0,0.0,0.0,0.0,0.0,0.0,0.0,0.0,0.0,0.0,0.0,0.0,0.0,0.0,0.0,0.0,0.0,0.0,0.0,0.0,0.0
1762670794.2018685,1.1840538969127348e-17,-8.748990262668883e-18,0.130501982307332,5.0,0.0,1.5,7.65777993917666e-17,1.0579637217903785e-16,-1.591453040148521e-19,2.700611205096093e-16,-2.071092657187595e-16,1.1234239851855743,1.692081422291596e-15,2.4095826209735403e-15,-6.628506956612799e-18,0.0,0.0,0.0,0.0,0.0,0.0,0.0,0.0,0.0,0.0,0.0,0.0,0.0,0.0,0.0,0.0,0.0,0.0,0.0,0.0,0.0,0.0,0.0,0.0
1762670794.2031415,1.1840538969127348e-17,-8.748990262668883e-18,0.130501982307332,5.0,0.0,1.5,7.65777993917666e-17,1.0579637217903785e-16,-1.591453040148521e-19,2.700611205096093e-16,-2.071092657187595e-16,1.1234239851855743,1.692081422291596e-15,2.4095826209735403e-15,-6.628506956612799e-18,0.0,0.0,0.0,0.0,0.0,0.0,0.0,0.0,0.0,0.0,0.0,0.0,0.0,0.0,0.0,0.0,0.0,0.0,0.0,0.0,0.0,0.0,0.0,0.0
1762670794.20458,1.210486312623401e-17,-8.952072690011194e-18,0.1316205012925176,5.0,0.0,1.5,7.826907150987543e-17,1.0820589680827559e-16,-1.657738106736959e-19,2.700611205096093e-16,-2.0710926571875953e-16,1.1136139851855742,1.6904629235019249e-15,2.4094671528500194e-15,-6.628506361173926e-18,0.0,0.0,0.0,0.0,0.0,0.0,0.0,0.0,0.0,0.0,0.0,0.0,0.0,0.0,0.0,0.0,0.0,0.0,0.0,0.0,0.0,0.0,0.0,0.0
1762670794.2059278,1.210486312623401e-17,-8.952072690011194e-18,0.1316205012925176,5.0,0.0,1.5,7.826907150987543e-17,1.0820589680827559e-16,-1.657738106736959e-19,2.700611205096093e-16,-2.0710926571875953e-16,1.1136139851855742,1.6904629235019249e-15,2.4094671528500194e-15,-6.628506361173926e-18,0.0,0.0,0.0,0.0,0.0,0.0,0.0,0.0,0.0,0.0,0.0,0.0,0.0,0.0,0.0,0.0,0.0,0.0,0.0,0.0,0.0,0.0,0.0,0.0
1762670794.2071707,1.210486312623401e-17,-8.952072690011194e-18,0.1316205012925176,5.0,0.0,1.5,7.826907150987543e-17,1.0820589680827559e-16,-1.657738106736959e-19,2.700611205096093e-16,-2.0710926571875953e-16,1.1136139851855742,1.6904629235019249e-15,2.4094671528500194e-15,-6.628506361173926e-18,0.0,0.0,0.0,0.0,0.0,0.0,0.0,0.0,0.0,0.0,0.0,0.0,0.0,0.0,0.0,0.0,0.0,0.0,0.0,0.0,0.0,0.0,0.0,0.0
1762670794.2085307,1.2369186380319509e-17,-9.155158970145892e-18,0.13272921027770318,5.0,0.0,1.5,7.995872545518091e-17,1.1061580070640178e-16,-1.72402316737397e-19,2.7006112050960926e-16,-2.0710926571875946e-16,1.103803985185574,1.688845073977185e-15,2.410217837584012e-15,-6.628505766327288e-18,0.0,0.0,0.0,0.0,0.0,0.0,0.0,0.0,0.0,0.0,0.0,0.0,0.0,0.0,0.0,0.0,0.0,0.0,0.0,0.0,0.0,0.0,0.0,0.0
1762670794.2097237,1.2369186380319509e-17,-9.155158970145892e-18,0.13272921027770318,5.0,0.0,1.5,7.995872545518091e-17,1.1061580070640178e-16,-1.72402316737397e-19,2.7006112050960926e-16,-2.0710926571875946e-16,1.103803985185574,1.688845073977185e-15,2.410217837584012e-15,-6.628505766327288e-18,0.0,0.0,0.0,0.0,0.0,0.0,0.0,0.0,0.0,0.0,0.0,0.0,0.0,0.0,0.0,0.0,0.0,0.0,0.0,0.0,0.0,0.0,0.0,0.0
1762670794.2109854,1.2369186380319509e-17,-9.155158970145892e-18,0.13272921027770318,5.0,0.0,1.5,7.995872545518091e-17,1.1061580070640178e-16,-1.72402316737397e-19,2.7006112050960926e-16,-2.0710926571875946e-16,1.103803985185574,1.688845073977185e-15,2.410217837584012e-15,-6.628505766327288e-18,0.0,0.0,0.0,0.0,0.0,0.0,0.0,0.0,0.0,0.0,0.0,0.0,0.0,0.0,0.0,0.0,0.0,0.0,0.0,0.0,0.0,0.0,0.0,0.0
1762670794.2124288,1.263350957716732e-17,-9.358249101546293e-18,0.13382810926288877,5.0,0.0,1.5,8.164676186889113e-17,1.130257286443569e-16,-1.7903082220654731e-19,2.700611205096093e-16,-2.071092657187595e-16,1.093993985185574,1.6872278576692105e-15,2.4097897200966754e-15,-6.628505172072299e-18,0.0,0.0,0.0,0.0,0.0,0.0,0.0,0.0,0.0,0.0,0.0,0.0,0.0,0.0,0.0,0.0,0.0,0.0,0.0,0.0,0.0,0.0,0.0,0.0
1762670794.2137716,1.263350957716732e-17,-9.358249101546293e-18,0.13382810926288877,5.0,0.0,1.5,8.164676186889113e-17,1.130257286443569e-16,-1.7903082220654731e-19,2.700611205096093e-16,-2.071092657187595e-16,1.093993985185574,1.6872278576692105e-15,2.4097897200966754e-15,-6.628505172072299e-18,0.0,0.0,0.0,0.0,0.0,0.0,0.0,0.0,0.0,0.0,0.0,0.0,0.0,0.0,0.0,0.0,0.0,0.0,0.0,0.0,0.0,0.0,0.0,0.0
1762670794.2150776,1.263350957716732e-17,-9.358249101546293e-18,0.13382810926288877,5.0,0.0,1.5,8.164676186889113e-17,1.130257286443569e-16,-1.7903082220654731e-19,2.700611205096093e-16,-2.071092657187595e-16,1.093993985185574,1.6872278576692105e-15,2.4097897200966754e-15,-6.628505172072299e-18,0.0,0.0,0.0,0.0,0.0,0.0,0.0,0.0,0.0,0.0,0.0,0.0,0.0,0.0,0.0,0.0,0.0,0.0,0.0,0.0,0.0,0.0,0.0,0.0
1762670794.2164094,1.289783323056538e-17,-9.561343082723459e-18,0.13491719824807435,5.0,0.0,1.5,8.333318137636093e-17,1.1543546483120767e-16,-1.8565932708173824e-19,2.7006112050960936e-16,-2.071092657187595e-16,1.084183985185574,1.6856112589180265e-15,2.4096831250244835e-15,-6.628504578408368e-18,0.0,0.0,0.0,0.0,0.0,0.0,0.0,0.0,0.0,0.0,0.0,0.0,0.0,0.0,0.0,0.0,0.0,0.0,0.0,0.0,0.0,0.0,0.0,0.0
1762670794.2176309,1.289783323056538e-17,-9.561343082723459e-18,0.13491719824807435,5.0,0.0,1.5,8.333318137636093e-17,1.1543546483120767e-16,-1.8565932708173824e-19,2.7006112050960936e-16,-2.071092657187595e-16,1.084183985185574,1.6856112589180265e-15,2.4096831250244835e-15,-6.628504578408368e-18,0.0,0.0,0.0,0.0,0.0,0.0,0.0,0.0,0.0,0.0,0.0,0.0,0.0,0.0,0.0,0.0,0.0,0.0,0.0,0.0,0.0,0.0,0.0,0.0
1762670794.2188702,1.289783323056538e-17,-9.561343082723459e-18,0.13491719824807435,5.0,0.0,1.5,8.333318137636093e-17,1.1543546483120767e-16,-1.8565932708173824e-19,2.7006112050960936e-16,-2.071092657187595e-16,1.084183985185574,1.6856112589180265e-15,2.4096831250244835e-15,-6.628504578408368e-18,0.0,0.0,0.0,0.0,0.0,0.0,0.0,0.0,0.0,0.0,0.0,0.0,0.0,0.0,0.0,0.0,0.0,0.0,0.0,0.0,0.0,0.0,0.0,0.0
1762670794.2202585,1.3162157267222472e-17,-9.76444091222528e-18,0.13599647723325992,5.0,0.0,1.5,8.501798458747534e-17,1.178450400492647e-16,-1.922878313635605e-19,2.700611205096093e-16,-2.0710926571875953e-16,1.0743739851855738,1.683995262442508e-15,2.4095514786098705e-15,-6.6285039853349095e-18,0.0,0.0,0.0,0.0,0.0,0.0,0.0,0.0,0.0,0.0,0.0,0.0,0.0,0.0,0.0,0.0,0.0,0.0,0.0,0.0,0.0,0.0,0.0,0.0
1762670794.2216384,1.3162157267222472e-17,-9.76444091222528e-18,0.13599647723325992,5.0,0.0,1.5,8.501798458747534e-17,1.178450400492647e-16,-1.922878313635605e-19,2.700611205096093e-16,-2.0710926571875953e-16,1.0743739851855738,1.683995262442508e-15,2.4095514786098705e-15,-6.6285039853349095e-18,0.0,0.0,0.0,0.0,0.0,0.0,0.0,0.0,0.0,0.0,0.0,0.0,0.0,0.0,0.0,0.0,0.0,0.0,0.0,0.0,0.0,0.0,0.0,0.0
1762670794.223011,1.3162157267222472e-17,-9.76444091222528e-18,0.13599647723325992,5.0,0.0,1.5,8.501798458747534e-17,1.178450400492647e-16,-1.922878313635605e-19,2.700611205096093e-16,-2.0710926571875953e-16,1.0743739851855738,1.683995262442508e-15,2.4095514786098705e-15,-6.6285039853349095e-18,0.0,0.0,0.0,0.0,0.0,0.0,0.0,0.0,0.0,0.0,0.0,0.0,0.0,0.0,0.0,0.0,0.0,0.0,0.0,0.0,0.0,0.0,0.0,0.0
1762670794.224415,1.3426481481160385e-17,-9.967542588635589e-18,0.13706594621844548,5.0,0.0,1.5,8.670117209702389e-17,1.2025454080937726e-16,-1.9891633505260427e-19,2.700611205096093e-16,-2.071092657187595e-16,1.0645639851855737,1.6823798533312645e-15,2.4094504977943394e-15,-6.628503392851333e-18,0.0,0.0,0.0,0.0,0.0,0.0,0.0,0.0,0.0,0.0,0.0,0.0,0.0,0.0,0.0,0.0,0.0,0.0,0.0,0.0,0.0,0.0,0.0,0.0
1762670794.22573,1.3426481481160385e-17,-9.967542588635589e-18,0.13706594621844548,5.0,0.0,1.5,8.670117209702389e-17,1.2025454080937726e-16,-1.9891633505260427e-19,2.700611205096093e-16,-2.071092657187595e-16,1.0645639851855737,1.6823798533312645e-15,2.4094504977943394e-15,-6.628503392851333e-18,0.0,0.0,0.0,0.0,0.0,0.0,0.0,0.0,0.0,0.0,0.0,0.0,0.0,0.0,0.0,0.0,0.0,0.0,0.0,0.0,0.0,0.0,0.0,0.0
1762670794.2269614,1.3426481481160385e-17,-9.967542588635589e-18,0.13706594621844548,5.0,0.0,1.5,8.670117209702389e-17,1.2025454080937726e-16,-1.9891633505260427e-19,2.700611205096093e-16,-2.071092657187595e-16,1.0645639851855737,1.6823798533312645e-15,2.4094504977943394e-15,-6.628503392851333e-18,0.0,0.0,0.0,0.0,0.0,0.0,0.0,0.0,0.0,0.0,0.0,0.0,0.0,0.0,0.0,0.0,0.0,0.0,0.0,0.0,0.0,0.0,0.0,0.0
1762670794.2283223,1.3690805932297045e-17,-1.0170648110573296e-17,0.13812560520363104,5.0,0.0,1.5,8.838274448506587e-17,1.2266394194601578e-16,-2.0554483814945918e-19,2.700611205096093e-16,-2.071092657187595e-16,1.0547539851855736,1.6807650170337424e-15,2.409352220600207e-15,-6.6285028009570545e-18,0.0,0.0,0.0,0.0,0.0,0.0,0.0,0.0,0.0,0.0,0.0,0.0,0.0,0.0,0.0,0.0,0.0,0.0,0.0,0.0,0.0,0.0,0.0,0.0
1762670794.2297132,1.3690805932297045e-17,-1.0170648110573296e-17,0.13812560520363104,5.0,0.0,1.5,8.838274448506587e-17,1.2266394194601578e-16,-2.0554483814945918e-19,2.700611205096093e-16,-2.071092657187595e-16,1.0547539851855736,1.6807650170337424e-15,2.409352220600207e-15,-6.6285028009570545e-18,0.0,0.0,0.0,0.0,0.0,0.0,0.0,0.0,0.0,0.0,0.0,0.0,0.0,0.0,0.0,0.0,0.0,0.0,0.0,0.0,0.0,0.0,0.0,0.0
1762670794.2310283,1.3690805932297045e-17,-1.0170648110573296e-17,0.13812560520363104,5.0,0.0,1.5,8.838274448506587e-17,1.2266394194601578e-16,-2.0554483814945918e-19,2.700611205096093e-16,-2.071092657187595e-16,1.0547539851855736,1.6807650170337424e-15,2.409352220600207e-15,-6.6285028009570545e-18,0.0,0.0,0.0,0.0,0.0,0.0,0.0,0.0,0.0,0.0,0.0,0.0,0.0,0.0,0.0,0.0,0.0,0.0,0.0,0.0,0.0,0.0,0.0,0.0
1762670794.2324097,1.3955130614273638e-17,-1.0373757476691531e-17,0.1391754541888166,5.0,0.0,1.5,9.006270231728682e-17,1.2507324612988223e-16,-2.121733406547142e-19,2.7006112050960936e-16,-2.071092657187595e-16,1.0449439851855735,1.6791507393515425e-15,2.4092565814508326e-15,-6.628502209651488e-18,0.0,0.0,0.0,0.0,0.0,0.0,0.0,0.0,0.0,0.0,0.0,0.0,0.0,0.0,0.0,0.0,0.0,0.0,0.0,0.0,0.0,0.0,0.0,0.0
1762670794.2336886,1.3955130614273638e-17,-1.0373757476691531e-17,0.1391754541888166,5.0,0.0,1.5,9.006270231728682e-17,1.2507324612988223e-16,-2.121733406547142e-19,2.7006112050960936e-16,-2.071092657187595e-16,1.0449439851855735,1.6791507393515425e-15,2.4092565814508326e-15,-6.628502209651488e-18,0.0,0.0,0.0,0.0,0.0,0.0,0.0,0.0,0.0,0.0,0.0,0.0,0.0,0.0,0.0,0.0,0.0,0.0,0.0,0.0,0.0,0.0,0.0,0.0
1762670794.2349393,1.3955130614273638e-17,-1.0373757476691531e-17,0.1391754541888166,5.0,0.0,1.5,9.006270231728682e-17,1.2507324612988223e-16,-2.121733406547142e-19,2.7006112050960936e-16,-2.071092657187595e-16,1.0449439851855735,1.6791507393515425e-15,2.4092565814508326e-15,-6.628502209651488e-18,0.0,0.0,0.0,0.0,0.0,0.0,0.0,0.0,0.0,0.0,0.0,0.0,0.0,0.0,0.0,0.0,0.0,0.0,0.0,0.0,0.0,0.0,0.0,0.0
1762670794.2363205,1.421945552088563e-17,-1.0576870685676814e-17,0.14021549317400217,5.0,0.0,1.5,9.174104614534639e-17,1.2748245596688226e-16,-2.188018425689578e-19,2.700611205096093e-16,-2.071092657187595e-16,1.0351339851855734,1.677537006429946e-15,2.4091635163239275e-15,-6.628501618934047e-18,0.0,0.0,0.0,0.0,0.0,0.0,0.0,0.0,0.0,0.0,0.0,0.0,0.0,0.0,0.0,0.0,0.0,0.0,0.0,0.0,0.0,0.0,0.0,0.0
1762670794.2377853,1.421945552088563e-17,-1.0576870685676814e-17,0.14021549317400217,5.0,0.0,1.5,9.174104614534639e-17,1.2748245596688226e-16,-2.188018425689578e-19,2.700611205096093e-16,-2.071092657187595e-16,1.0351339851855734,1.677537006429946e-15,2.4091635163239275e-15,-6.628501618934047e-18,0.0,0.0,0.0,0.0,0.0,0.0,0.0,0.0,0.0,0.0,0.0,0.0,0.0,0.0,0.0,0.0,0.0,0.0,0.0,0.0,0.0,0.0,0.0,0.0
1762670794.239261,1.421945552088563e-17,-1.0576870685676814e-17,0.14021549317400217,5.0,0.0,1.5,9.174104614534639e-17,1.2748245596688226e-16,-2.188018425689578e-19,2.700611205096093e-16,-2.071092657187595e-16,1.0351339851855734,1.677537006429946e-15,2.4091635163239275e-15,-6.628501618934047e-18,0.0,0.0,0.0,0.0,0.0,0.0,0.0,0.0,0.0,0.0,0.0,0.0,0.0,0.0,0.0,0.0,0.0,0.0,0.0,0.0,0.0,0.0,0.0,0.0
1762670794.2406223,1.4483779765298122e-17,-1.0779985202238353e-17,0.14124572215918774,5.0,0.0,1.5,9.341884079137975e-17,1.2989194392767048e-16,-2.254303438927777e-19,2.700611205096093e-16,-2.071092657187595e-16,1.0253239851855733,1.6777862977212539e-15,2.409812767929275e-15,-6.628501028804146e-18,0.0,0.0,0.0,0.0,0.0,0.0,0.0,0.0,0.0,0.0,0.0,0.0,0.0,0.0,0.0,0.0,0.0,0.0,0.0,0.0,0.0,0.0,0.0,0.0
1762670794.241957,1.4483779765298122e-17,-1.0779985202238353e-17,0.14124572215918774,5.0,0.0,1.5,9.341884079137975e-17,1.2989194392767048e-16,-2.254303438927777e-19,2.700611205096093e-16,-2.071092657187595e-16,1.0253239851855733,1.6777862977212539e-15,2.409812767929275e-15,-6.628501028804146e-18,0.0,0.0,0.0,0.0,0.0,0.0,0.0,0.0,0.0,0.0,0.0,0.0,0.0,0.0,0.0,0.0,0.0,0.0,0.0,0.0,0.0,0.0,0.0,0.0
1762670794.2432039,1.4483779765298122e-17,-1.0779985202238353e-17,0.14124572215918774,5.0,0.0,1.5,9.341884079137975e-17,1.2989194392767048e-16,-2.254303438927777e-19,2.700611205096093e-16,-2.071092657187595e-16,1.0253239851855733,1.6777862977212539e-15,2.409812767929275e-15,-6.628501028804146e-18,0.0,0.0,0.0,0.0,0.0,0.0,0.0,0.0,0.0,0.0,0.0,0.0,0.0,0.0,0.0,0.0,0.0,0.0,0.0,0.0,0.0,0.0,0.0,0.0
1762670794.2445695,1.4748104128327594e-17,-1.0983102292207369e-17,0.1422661411443733,5.0,0.0,1.5,9.509555460627196e-17,1.3230138206932831e-16,-2.3205884462676123e-19,2.7006112050960936e-16,-2.0710926571875948e-16,1.0155139851855732,1.675907483702373e-15,2.409433909537926e-15,-6.628500439261201e-18,0.0,0.0,0.0,0.0,0.0,0.0,0.0,0.0,0.0,0.0,0.0,0.0,0.0,0.0,0.0,0.0,0.0,0.0,0.0,0.0,0.0,0.0,0.0,0.0
1762670794.24626,1.4748104128327594e-17,-1.0983102292207369e-17,0.1422661411443733,5.0,0.0,1.5,9.509555460627196e-17,1.3230138206932831e-16,-2.3205884462676123e-19,2.7006112050960936e-16,-2.0710926571875948e-16,1.0155139851855732,1.675907483702373e-15,2.409433909537926e-15,-6.628500439261201e-18,0.0,0.0,0.0,0.0,0.0,0.0,0.0,0.0,0.0,0.0,0.0,0.0,0.0,0.0,0.0,0.0,0.0,0.0,0.0,0.0,0.0,0.0,0.0,0.0
1762670794.2477515,1.4748104128327594e-17,-1.0983102292207369e-17,0.1422661411443733,5.0,0.0,1.5,9.509555460627196e-17,1.3230138206932831e-16,-2.3205884462676123e-19,2.7006112050960936e-16,-2.0710926571875948e-16,1.0155139851855732,1.675907483702373e-15,2.409433909537926e-15,-6.628500439261201e-18,0.0,0.0,0.0,0.0,0.0,0.0,0.0,0.0,0.0,0.0,0.0,0.0,0.0,0.0,0.0,0.0,0.0,0.0,0.0,0.0,0.0,0.0,0.0,0.0
1762670794.2493637,1.5012428083264106e-17,-1.1186223221435175e-17,0.14327675012955887,5.0,0.0,1.5,9.677065593247186e-17,1.347109916100287e-16,-2.386873447714951e-19,2.7006112050960936e-16,-2.0710926571875948e-16,1.0057039851855731,1.6742952520692544e-15,2.409331924783847e-15,-6.628499850304629e-18,0.0,0.0,0.0,0.0,0.0,0.0,0.0,0.0,0.0,0.0,0.0,0.0,0.0,0.0,0.0,0.0,0.0,0.0,0.0,0.0,0.0,0.0,0.0,0.0
1762670794.2507927,1.5012428083264106e-17,-1.1186223221435175e-17,0.14327675012955887,5.0,0.0,1.5,9.677065593247186e-17,1.347109916100287e-16,-2.386873447714951e-19,2.7006112050960936e-16,-2.0710926571875948e-16,1.0057039851855731,1.6742952520692544e-15,2.409331924783847e-15,-6.628499850304629e-18,0.0,0.0,0.0,0.0,0.0,0.0,0.0,0.0,0.0,0.0,0.0,0.0,0.0,0.0,0.0,0.0,0.0,0.0,0.0,0.0,0.0,0.0,0.0,0.0
1762670794.2522523,1.5012428083264106e-17,-1.1186223221435175e-17,0.14327675012955887,5.0,0.0,1.5,9.677065593247186e-17,1.347109916100287e-16,-2.386873447714951e-19,2.7006112050960936e-16,-2.0710926571875948e-16,1.0057039851855731,1.6742952520692544e-15,2.409331924783847e-15,-6.628499850304629e-18,0.0,0.0,0.0,0.0,0.0,0.0,0.0,0.0,0.0,0.0,0.0,0.0,0.0,0.0,0.0,0.0,0.0,0.0,0.0,0.0,0.0,0.0,0.0,0.0
1762670794.2538388,1.5276752798964763e-17,-1.1389347988719213e-17,0.14427754911474444,5.0,0.0,1.5,9.844414527505491e-17,1.3712028162978941e-16,-2.4531584432756532e-19,2.700611205096094e-16,-2.0710926571875948e-16,0.9958939851855731,1.6726835143951876e-15,2.409248491295616e-15,-6.628499261933846e-18,0.0,0.0,0.0,0.0,0.0,0.0,0.0,0.0,0.0,0.0,0.0,0.0,0.0,0.0,0.0,0.0,0.0,0.0,0.0,0.0,0.0,0.0,0.0,0.0
1762670794.2554276,1.5276752798964763e-17,-1.1389347988719213e-17,0.14427754911474444,5.0,0.0,1.5,9.844414527505491e-17,1.3712028162978941e-16,-2.4531584432756532e-19,2.700611205096094e-16,-2.0710926571875948e-16,0.9958939851855731,1.6726835143951876e-15,2.409248491295616e-15,-6.628499261933846e-18,0.0,0.0,0.0,0.0,0.0,0.0,0.0,0.0,0.0,0.0,0.0,0.0,0.0,0.0,0.0,0.0,0.0,0.0,0.0,0.0,0.0,0.0,0.0,0.0
1762670794.2568414,1.5276752798964763e-17,-1.1389347988719213e-17,0.14427754911474444,5.0,0.0,1.5,9.844414527505491e-17,1.3712028162978941e-16,-2.4531584432756532e-19,2.700611205096094e-16,-2.0710926571875948e-16,0.9958939851855731,1.6726835143951876e-15,2.409248491295616e-15,-6.628499261933846e-18,0.0,0.0,0.0,0.0,0.0,0.0,0.0,0.0,0.0,0.0,0.0,0.0,0.0,0.0,0.0,0.0,0.0,0.0,0.0,0.0,0.0,0.0,0.0,0.0
1762670794.258228,1.5541077843449983e-17,-1.1592476592898077e-17,0.14526853809993,5.0,0.0,1.5,1.001160231218105e-16,1.395294335600316e-16,-2.519443432955574e-19,2.7006112050960936e-16,-2.0710926571875948e-16,0.9860839851855732,1.6710722583910424e-15,2.4091394440963094e-15,-6.628498674148269e-18,0.0,0.0,0.0,0.0,0.0,0.0,0.0,0.0,0.0,0.0,0.0,0.0,0.0,0.0,0.0,0.0,0.0,0.0,0.0,0.0,0.0,0.0,0.0,0.0
1762670794.259446,1.5541077843449983e-17,-1.1592476592898077e-17,0.14526853809993,5.0,0.0,1.5,1.001160231218105e-16,1.395294335600316e-16,-2.519443432955574e-19,2.7006112050960936e-16,-2.0710926571875948e-16,0.9860839851855732,1.6710722583910424e-15,2.4091394440963094e-15,-6.628498674148269e-18,0.0,0.0,0.0,0.0,0.0,0.0,0.0,0.0,0.0,0.0,0.0,0.0,0.0,0.0,0.0,0.0,0.0,0.0,0.0,0.0,0.0,0.0,0.0,0.0
1762670794.2607014,1.5541077843449983e-17,-1.1592476592898077e-17,0.14526853809993,5.0,0.0,1.5,1.001160231218105e-16,1.395294335600316e-16,-2.519443432955574e-19,2.7006112050960936e-16,-2.0710926571875948e-16,0.9860839851855732,1.6710722583910424e-15,2.4091394440963094e-15,-6.628498674148269e-18,0.0,0.0,0.0,0.0,0.0,0.0,0.0,0.0,0.0,0.0,0.0,0.0,0.0,0.0,0.0,0.0,0.0,0.0,0.0,0.0,0.0,0.0,0.0,0.0
1762670794.2621243,1.5805403012064602e-17,-1.1795609032839271e-17,0.14624971708511558,5.0,0.0,1.5,1.0178628994838833e-16,1.4193853335592889e-16,-2.585728416760562e-19,2.7006112050960936e-16,-2.0710926571875948e-16,0.9762739851855732,1.6694614720654187e-15,2.4090605134605676e-15,-6.628498086947316e-18,0.0,0.0,0.0,0.0,0.0,0.0,0.0,0.0,0.0,0.0,0.0,0.0,0.0,0.0,0.0,0.0,0.0,0.0,0.0,0.0,0.0,0.0,0.0,0.0
1762670794.2635531,1.5805403012064602e-17,-1.1795609032839271e-17,0.14624971708511558,5.0,0.0,1.5,1.0178628994838833e-16,1.4193853335592889e-16,-2.585728416760562e-19,2.7006112050960936e-16,-2.0710926571875948e-16,0.9762739851855732,1.6694614720654187e-15,2.4090605134605676e-15,-6.628498086947316e-18,0.0,0.0,0.0,0.0,0.0,0.0,0.0,0.0,0.0,0.0,0.0,0.0,0.0,0.0,0.0,0.0,0.0,0.0,0.0,0.0,0.0,0.0,0.0,0.0
1762670794.2649074,1.5805403012064602e-17,-1.1795609032839271e-17,0.14624971708511558,5.0,0.0,1.5,1.0178628994838833e-16,1.4193853335592889e-16,-2.585728416760562e-19,2.7006112050960936e-16,-2.0710926571875948e-16,0.9762739851855732,1.6694614720654187e-15,2.4090605134605676e-15,-6.628498086947316e-18,0.0,0.0,0.0,0.0,0.0,0.0,0.0,0.0,0.0,0.0,0.0,0.0,0.0,0.0,0.0,0.0,0.0,0.0,0.0,0.0,0.0,0.0,0.0,0.0
1762670794.2662914,1.6069728366018205e-17,-1.1998745307438496e-17,0.14722108607030115,5.0,0.0,1.5,1.034549462185926e-16,1.4434755530945154e-16,-2.652013394696462e-19,2.700611205096094e-16,-2.0710926571875946e-16,0.9664639851855732,1.667851143717479e-15,2.4089837504296137e-15,-6.6284975003304074e-18,0.0,0.0,0.0,0.0,0.0,0.0,0.0,0.0,0.0,0.0,0.0,0.0,0.0,0.0,0.0,0.0,0.0,0.0,0.0,0.0,0.0,0.0,0.0,0.0
1762670794.267519,1.6069728366018205e-17,-1.1998745307438496e-17,0.14722108607030115,5.0,0.0,1.5,1.034549462185926e-16,1.4434755530945154e-16,-2.652013394696462e-19,2.700611205096094e-16,-2.0710926571875946e-16,0.9664639851855732,1.667851143717479e-15,2.4089837504296137e-15,-6.6284975003304074e-18,0.0,0.0,0.0,0.0,0.0,0.0,0.0,0.0,0.0,0.0,0.0,0.0,0.0,0.0,0.0,0.0,0.0,0.0,0.0,0.0,0.0,0.0,0.0,0.0
1762670794.2687378,1.6069728366018205e-17,-1.1998745307438496e-17,0.14722108607030115,5.0,0.0,1.5,1.034549462185926e-16,1.4434755530945154e-16,-2.652013394696462e-19,2.700611205096094e-16,-2.0710926571875946e-16,0.9664639851855732,1.667851143717479e-15,2.4089837504296137e-15,-6.6284975003304074e-18,0.0,0.0,0.0,0.0,0.0,0.0,0.0,0.0,0.0,0.0,0.0,0.0,0.0,0.0,0.0,0.0,0.0,0.0,0.0,0.0,0.0,0.0,0.0,0.0
1762670794.2702122,1.633405390021302e-17,-1.2201885415618979e-17,0.14818264505548673,5.0,0.0,1.5,1.0512199238466899e-16,1.4675650156166625e-16,-2.7182983667691105e-19,2.700611205096094e-16,-2.0710926571875943e-16,0.9566539851855732,1.6662412619299547e-15,2.4089091021388793e-15,-6.628496914296961e-18,0.0,0.0,0.0,0.0,0.0,0.0,0.0,0.0,0.0,0.0,0.0,0.0,0.0,0.0,0.0,0.0,0.0,0.0,0.0,0.0,0.0,0.0,0.0,0.0
1762670794.2716293,1.633405390021302e-17,-1.2201885415618979e-17,0.14818264505548673,5.0,0.0,1.5,1.0512199238466899e-16,1.4675650156166625e-16,-2.7182983667691105e-19,2.700611205096094e-16,-2.0710926571875943e-16,0.9566539851855732,1.6662412619299547e-15,2.4089091021388793e-15,-6.628496914296961e-18,0.0,0.0,0.0,0.0,0.0,0.0,0.0,0.0,0.0,0.0,0.0,0.0,0.0,0.0,0.0,0.0,0.0,0.0,0.0,0.0,0.0,0.0,0.0,0.0
1762670794.273008,1.633405390021302e-17,-1.2201885415618979e-17,0.14818264505548673,5.0,0.0,1.5,1.0512199238466899e-16,1.4675650156166625e-16,-2.7182983667691105e-19,2.700611205096094e-16,-2.0710926571875943e-16,0.9566539851855732,1.6662412619299547e-15,2.4089091021388793e-15,-6.628496914296961e-18,0.0,0.0,0.0,0.0,0.0,0.0,0.0,0.0,0.0,0.0,0.0,0.0,0.0,0.0,0.0,0.0,0.0,0.0,0.0,0.0,0.0,0.0,0.0,0.0
1762670794.2744236,1.6598378728894655e-17,-1.2405029356330795e-17,0.1491343940406723,5.0,0.0,1.5,1.0678742888758487e-16,1.491657441294144e-16,-2.7845833329843393e-19,2.7006112050960936e-16,-2.0710926571875943e-16,0.9468439851855732,1.6646318155623188e-15,2.409576322192886e-15,-6.6284963288463945e-18,0.0,0.0,0.0,0.0,0.0,0.0,0.0,0.0,0.0,0.0,0.0,0.0,0.0,0.0,0.0,0.0,0.0,0.0,0.0,0.0,0.0,0.0,0.0,0.0
1762670794.2757182,1.6598378728894655e-17,-1.2405029356330795e-17,0.1491343940406723,5.0,0.0,1.5,1.0678742888758487e-16,1.491657441294144e-16,-2.7845833329843393e-19,2.7006112050960936e-16,-2.0710926571875943e-16,0.9468439851855732,1.6646318155623188e-15,2.409576322192886e-15,-6.6284963288463945e-18,0.0,0.0,0.0,0.0,0.0,0.0,0.0,0.0,0.0,0.0,0.0,0.0,0.0,0.0,0.0,0.0,0.0,0.0,0.0,0.0,0.0,0.0,0.0,0.0
1762670794.276957,1.6598378728894655e-17,-1.2405029356330795e-17,0.1491343940406723,5.0,0.0,1.5,1.0678742888758487e-16,1.491657441294144e-16,-2.7845833329843393e-19,2.7006112050960936e-16,-2.0710926571875943e-16,0.9468439851855732,1.6646318155623188e-15,2.409576322192886e-15,-6.6284963288463945e-18,0.0,0.0,0.0,0.0,0.0,0.0,0.0,0.0,0.0,0.0,0.0,0.0,0.0,0.0,0.0,0.0,0.0,0.0,0.0,0.0,0.0,0.0,0.0,0.0
1762670794.2783341,1.6862703633934465e-17,-1.2608177128550227e-17,0.15007633302585788,5.0,0.0,1.5,1.0845125615730268e-16,1.5157495462673006e-16,-2.8508682933479743e-19,2.7006112050960936e-16,-2.0710926571875946e-16,0.9370339851855732,1.6630227937441254e-15,2.4092149945006237e-15,-6.628495743978132e-18,0.0,0.0,0.0,0.0,0.0,0.0,0.0,0.0,0.0,0.0,0.0,0.0,0.0,0.0,0.0,0.0,0.0,0.0,0.0,0.0,0.0,0.0,0.0,0.0
1762670794.2796488,1.6862703633934465e-17,-1.2608177128550227e-17,0.15007633302585788,5.0,0.0,1.5,1.0845125615730268e-16,1.5157495462673006e-16,-2.8508682933479743e-19,2.7006112050960936e-16,-2.0710926571875946e-16,0.9370339851855732,1.6630227937441254e-15,2.4092149945006237e-15,-6.628495743978132e-18,0.0,0.0,0.0,0.0,0.0,0.0,0.0,0.0,0.0,0.0,0.0,0.0,0.0,0.0,0.0,0.0,0.0,0.0,0.0,0.0,0.0,0.0,0.0,0.0
1762670794.2809157,1.6862703633934465e-17,-1.2608177128550227e-17,0.15007633302585788,5.0,0.0,1.5,1.0845125615730268e-16,1.5157495462673006e-16,-2.8508682933479743e-19,2.7006112050960936e-16,-2.0710926571875946e-16,0.9370339851855732,1.6630227937441254e-15,2.4092149945006237e-15,-6.628495743978132e-18,0.0,0.0,0.0,0.0,0.0,0.0,0.0,0.0,0.0,0.0,0.0,0.0,0.0,0.0,0.0,0.0,0.0,0.0,0.0,0.0,0.0,0.0,0.0,0.0
1762670794.282189,1.7127028089652356e-17,-1.281132873127912e-17,0.15100846201104345,5.0,0.0,1.5,1.1011347461304673e-16,1.539843538392508e-16,-2.917153247865836e-19,2.7006112050960936e-16,-2.0710926571875946e-16,0.9272239851855733,1.661414185868506e-15,2.4091301130832456e-15,-6.628495159691592e-18,0.0,0.0,0.0,0.0,0.0,0.0,0.0,0.0,0.0,0.0,0.0,0.0,0.0,0.0,0.0,0.0,0.0,0.0,0.0,0.0,0.0,0.0,0.0,0.0
1762670794.2834623,1.7127028089652356e-17,-1.281132873127912e-17,0.15100846201104345,5.0,0.0,1.5,1.1011347461304673e-16,1.539843538392508e-16,-2.917153247865836e-19,2.7006112050960936e-16,-2.0710926571875946e-16,0.9272239851855733,1.661414185868506e-15,2.4091301130832456e-15,-6.628495159691592e-18,0.0,0.0,0.0,0.0,0.0,0.0,0.0,0.0,0.0,0.0,0.0,0.0,0.0,0.0,0.0,0.0,0.0,0.0,0.0,0.0,0.0,0.0,0.0,0.0
1762670794.2847276,1.7127028089652356e-17,-1.281132873127912e-17,0.15100846201104345,5.0,0.0,1.5,1.1011347461304673e-16,1.539843538392508e-16,-2.917153247865836e-19,2.7006112050960936e-16,-2.0710926571875946e-16,0.9272239851855733,1.661414185868506e-15,2.4091301130832456e-15,-6.628495159691592e-18,0.0,0.0,0.0,0.0,0.0,0.0,0.0,0.0,0.0,0.0,0.0,0.0,0.0,0.0,0.0,0.0,0.0,0.0,0.0,0.0,0.0,0.0,0.0,0.0
1762670794.2860103,1.739135346518754e-17,-1.3014484163544267e-17,0.15193078099622903,5.0,0.0,1.5,1.1177408466356361e-16,1.5639336672851122e-16,-2.9834381965437385e-19,2.7006112050960936e-16,-2.0710926571875943e-16,0.9174139851855733,1.6598059815858252e-15,2.408895984781918e-15,-6.628494575986195e-18,0.0,0.0,0.0,0.0,0.0,0.0,0.0,0.0,0.0,0.0,0.0,0.0,0.0,0.0,0.0,0.0,0.0,0.0,0.0,0.0,0.0,0.0,0.0,0.0
1762670794.2875013,1.739135346518754e-17,-1.3014484163544267e-17,0.15193078099622903,5.0,0.0,1.5,1.1177408466356361e-16,1.5639336672851122e-16,-2.9834381965437385e-19,2.7006112050960936e-16,-2.0710926571875943e-16,0.9174139851855733,1.6598059815858252e-15,2.408895984781918e-15,-6.628494575986195e-18,0.0,0.0,0.0,0.0,0.0,0.0,0.0,0.0,0.0,0.0,0.0,0.0,0.0,0.0,0.0,0.0,0.0,0.0,0.0,0.0,0.0,0.0,0.0,0.0
1762670794.2889445,1.739135346518754e-17,-1.3014484163544267e-17,0.15193078099622903,5.0,0.0,1.5,1.1177408466356361e-16,1.5639336672851122e-16,-2.9834381965437385e-19,2.7006112050960936e-16,-2.0710926571875943e-16,0.9174139851855733,1.6598059815858252e-15,2.408895984781918e-15,-6.628494575986195e-18,0.0,0.0,0.0,0.0,0.0,0.0,0.0,0.0,0.0,0.0,0.0,0.0,0.0,0.0,0.0,0.0,0.0,0.0,0.0,0.0,0.0,0.0,0.0,0.0
1762670794.2904477,1.7655679130224795e-17,-1.3217643424396806e-17,0.1528432899814146,5.0,0.0,1.5,1.134330867073763e-16,1.5880225802689953e-16,-3.04972313938749e-19,2.700611205096094e-16,-2.0710926571875943e-16,0.9076039851855733,1.658198170797486e-15,2.408859024925802e-15,-6.628493992861365e-18,0.0,0.0,0.0,0.0,0.0,0.0,0.0,0.0,0.0,0.0,0.0,0.0,0.0,0.0,0.0,0.0,0.0,0.0,0.0,0.0,0.0,0.0,0.0,0.0
1762670794.2917745,1.7655679130224795e-17,-1.3217643424396806e-17,0.1528432899814146,5.0,0.0,1.5,1.134330867073763e-16,1.5880225802689953e-16,-3.04972313938749e-19,2.700611205096094e-16,-2.0710926571875943e-16,0.9076039851855733,1.658198170797486e-15,2.408859024925802e-15,-6.628493992861365e-18,0.0,0.0,0.0,0.0,0.0,0.0,0.0,0.0,0.0,0.0,0.0,0.0,0.0,0.0,0.0,0.0,0.0,0.0,0.0,0.0,0.0,0.0,0.0,0.0
1762670794.2930562,1.7655679130224795e-17,-1.3217643424396806e-17,0.1528432899814146,5.0,0.0,1.5,1.134330867073763e-16,1.5880225802689953e-16,-3.04972313938749e-19,2.700611205096094e-16,-2.0710926571875943e-16,0.9076039851855733,1.658198170797486e-15,2.408859024925802e-15,-6.628493992861365e-18,0.0,0.0,0.0,0.0,0.0,0.0,0.0,0.0,0.0,0.0,0.0,0.0,0.0,0.0,0.0,0.0,0.0,0.0,0.0,0.0,0.0,0.0,0.0,0.0
1762670794.2942986,1.7920004947502585e-17,-1.3420806512911622e-17,0.1537459889666002,5.0,0.0,1.5,1.1509048113303212e-16,1.6121108538426412e-16,-3.1160080764028935e-19,2.700611205096094e-16,-2.0710926571875946e-16,0.8977939851855733,1.656590743649886e-15,2.408795990020071e-15,-6.6284934103165244e-18,0.0,0.0,0.0,0.0,0.0,0.0,0.0,0.0,0.0,0.0,0.0,0.0,0.0,0.0,0.0,0.0,0.0,0.0,0.0,0.0,0.0,0.0,0.0,0.0
1762670794.2955692,1.7920004947502585e-17,-1.3420806512911622e-17,0.1537459889666002,5.0,0.0,1.5,1.1509048113303212e-16,1.6121108538426412e-16,-3.1160080764028935e-19,2.700611205096094e-16,-2.0710926571875946e-16,0.8977939851855733,1.656590743649886e-15,2.408795990020071e-15,-6.6284934103165244e-18,0.0,0.0,0.0,0.0,0.0,0.0,0.0,0.0,0.0,0.0,0.0,0.0,0.0,0.0,0.0,0.0,0.0,0.0,0.0,0.0,0.0,0.0,0.0,0.0
1762670794.2969334,1.7920004947502585e-17,-1.3420806512911622e-17,0.1537459889666002,5.0,0.0,1.5,1.1509048113303212e-16,1.6121108538426412e-16,-3.1160080764028935e-19,2.700611205096094e-16,-2.0710926571875946e-16,0.8977939851855733,1.656590743649886e-15,2.408795990020071e-15,-6.6284934103165244e-18,0.0,0.0,0.0,0.0,0.0,0.0,0.0,0.0,0.0,0.0,0.0,0.0,0.0,0.0,0.0,0.0,0.0,0.0,0.0,0.0,0.0,0.0,0.0,0.0
1762670794.298317,1.8184330912736815e-17,-1.3623973428186778e-17,0.15463887795178577,5.0,0.0,1.5,1.167462683193449e-16,1.636198505999226e-16,-3.1822930075957464e-19,2.700611205096094e-16,-2.0710926571875946e-16,0.8879839851855733,1.6549836905285193e-15,2.4087347341526517e-15,-6.628492828351094e-18,0.0,0.0,0.0,0.0,0.0,0.0,0.0,0.0,0.0,0.0,0.0,0.0,0.0,0.0,0.0,0.0,0.0,0.0,0.0,0.0,0.0,0.0,0.0,0.0
1762670794.2996058,1.8184330912736815e-17,-1.3623973428186778e-17,0.15463887795178577,5.0,0.0,1.5,1.167462683193449e-16,1.636198505999226e-16,-3.1822930075957464e-19,2.700611205096094e-16,-2.0710926571875946e-16,0.8879839851855733,1.6549836905285193e-15,2.4087347341526517e-15,-6.628492828351094e-18,0.0,0.0,0.0,0.0,0.0,0.0,0.0,0.0,0.0,0.0,0.0,0.0,0.0,0.0,0.0,0.0,0.0,0.0,0.0,0.0,0.0,0.0,0.0,0.0
1762670794.3008938,1.8184330912736815e-17,-1.3623973428186778e-17,0.15463887795178577,5.0,0.0,1.5,1.167462683193449e-16,1.636198505999226e-16,-3.1822930075957464e-19,2.700611205096094e-16,-2.0710926571875946e-16,0.8879839851855733,1.6549836905285193e-15,2.4087347341526517e-15,-6.628492828351094e-18,0.0,0.0,0.0,0.0,0.0,0.0,0.0,0.0,0.0,0.0,0.0,0.0,0.0,0.0,0.0,0.0,0.0,0.0,0.0,0.0,0.0,0.0,0.0,0.0
1762670794.302169,1.8448657021743842e-17,-1.3827144169342952e-17,0.15552195693697135,5.0,0.0,1.5,1.184004486356311e-16,1.6602855543100742e-16,-3.2485779329718393e-19,2.700611205096094e-16,-2.0710926571875943e-16,0.8781739851855733,1.6533770020522165e-15,2.408675213686791e-15,-6.628492246964501e-18,0.0,0.0,0.0,0.0,0.0,0.0,0.0,0.0,0.0,0.0,0.0,0.0,0.0,0.0,0.0,0.0,0.0,0.0,0.0,0.0,0.0,0.0,0.0,0.0
1762670794.3035927,1.8448657021743842e-17,-1.3827144169342952e-17,0.15552195693697135,5.0,0.0,1.5,1.184004486356311e-16,1.6602855543100742e-16,-3.2485779329718393e-19,2.700611205096094e-16,-2.0710926571875943e-16,0.8781739851855733,1.6533770020522165e-15,2.408675213686791e-15,-6.628492246964501e-18,0.0,0.0,0.0,0.0,0.0,0.0,0.0,0.0,0.0,0.0,0.0,0.0,0.0,0.0,0.0,0.0,0.0,0.0,0.0,0.0,0.0,0.0,0.0,0.0
1762670794.3050268,1.8448657021743842e-17,-1.3827144169342952e-17,0.15552195693697135,5.0,0.0,1.5,1.184004486356311e-16,1.6602855543100742e-16,-3.2485779329718393e-19,2.700611205096094e-16,-2.0710926571875943e-16,0.8781739851855733,1.6533770020522165e-15,2.408675213686791e-15,-6.628492246964501e-18,0.0,0.0,0.0,0.0,0.0,0.0,0.0,0.0,0.0,0.0,0.0,0.0,0.0,0.0,0.0,0.0,0.0,0.0,0.0,0.0,0.0,0.0,0.0,0.0
1762670794.3064492,1.871298327044267e-17,-1.4030318735522878e-17,0.15639522592215693,5.0,0.0,1.5,1.200530224419403e-16,1.68437201591535e-16,-3.3148628525369576e-19,2.700611205096094e-16,-2.0710926571875943e-16,0.8683639851855733,1.651770669067528e-15,2.408617386022903e-15,-6.628491666156167e-18,0.0,0.0,0.0,0.0,0.0,0.0,0.0,0.0,0.0,0.0,0.0,0.0,0.0,0.0,0.0,0.0,0.0,0.0,0.0,0.0,0.0,0.0,0.0,0.0
1762670794.3077483,1.871298327044267e-17,-1.4030318735522878e-17,0.15639522592215693,5.0,0.0,1.5,1.200530224419403e-16,1.68437201591535e-16,-3.3148628525369576e-19,2.700611205096094e-16,-2.0710926571875943e-16,0.8683639851855733,1.651770669067528e-15,2.408617386022903e-15,-6.628491666156167e-18,0.0,0.0,0.0,0.0,0.0,0.0,0.0,0.0,0.0,0.0,0.0,0.0,0.0,0.0,0.0,0.0,0.0,0.0,0.0,0.0,0.0,0.0,0.0,0.0
1762670794.3090534,1.871298327044267e-17,-1.4030318735522878e-17,0.15639522592215693,5.0,0.0,1.5,1.200530224419403e-16,1.68437201591535e-16,-3.3148628525369576e-19,2.700611205096094e-16,-2.0710926571875943e-16,0.8683639851855733,1.651770669067528e-15,2.408617386022903e-15,-6.628491666156167e-18,0.0,0.0,0.0,0.0,0.0,0.0,0.0,0.0,0.0,0.0,0.0,0.0,0.0,0.0,0.0,0.0,0.0,0.0,0.0,0.0,0.0,0.0,0.0,0.0
1762670794.3103094,1.8977308480558284e-17,-1.423349712589083e-17,0.15725868490734252,5.0,0.0,1.5,1.217039900892802e-16,1.708462839570127e-16,-3.381147766296882e-19,2.700611205096094e-16,-2.0710926571875943e-16,0.8585539851855734,1.6501646826432397e-15,2.4094243080354808e-15,-6.628491085925518e-18,0.0,0.0,0.0,0.0,0.0,0.0,0.0,0.0,0.0,0.0,0.0,0.0,0.0,0.0,0.0,0.0,0.0,0.0,0.0,0.0,0.0,0.0,0.0,0.0
1762670794.311567,1.8977308480558284e-17,-1.423349712589083e-17,0.15725868490734252,5.0,0.0,1.5,1.217039900892802e-16,1.708462839570127e-16,-3.381147766296882e-19,2.700611205096094e-16,-2.0710926571875943e-16,0.8585539851855734,1.6501646826432397e-15,2.4094243080354808e-15,-6.628491085925518e-18,0.0,0.0,0.0,0.0,0.0,0.0,0.0,0.0,0.0,0.0,0.0,0.0,0.0,0.0,0.0,0.0,0.0,0.0,0.0,0.0,0.0,0.0,0.0,0.0
1762670794.3129253,1.8977308480558284e-17,-1.423349712589083e-17,0.15725868490734252,5.0,0.0,1.5,1.217039900892802e-16,1.708462839570127e-16,-3.381147766296882e-19,2.700611205096094e-16,-2.0710926571875943e-16,0.8585539851855734,1.6501646826432397e-15,2.4094243080354808e-15,-6.628491085925518e-18,0.0,0.0,0.0,0.0,0.0,0.0,0.0,0.0,0.0,0.0,0.0,0.0,0.0,0.0,0.0,0.0,0.0,0.0,0.0,0.0,0.0,0.0,0.0,0.0
1762670794.3142397,1.9241633501175282e-17,-1.4436679339632075e-17,0.1581123338925281,5.0,0.0,1.5,1.233533519198362e-16,1.7325544591191074e-16,-3.447432674257386e-19,2.7006112050960946e-16,-2.0710926571875943e-16,0.8487439851855734,1.6485590340650195e-15,2.4090510579349978e-15,-6.6284905062719794e-18,0.0,0.0,0.0,0.0,0.0,0.0,0.0,0.0,0.0,0.0,0.0,0.0,0.0,0.0,0.0,0.0,0.0,0.0,0.0,0.0,0.0,0.0,0.0,0.0
1762670794.3155286,1.9241633501175282e-17,-1.4436679339632075e-17,0.1581123338925281,5.0,0.0,1.5,1.233533519198362e-16,1.7325544591191074e-16,-3.447432674257386e-19,2.7006112050960946e-16,-2.0710926571875943e-16,0.8487439851855734,1.6485590340650195e-15,2.4090510579349978e-15,-6.6284905062719794e-18,0.0,0.0,0.0,0.0,0.0,0.0,0.0,0.0,0.0,0.0,0.0,0.0,0.0,0.0,0.0,0.0,0.0,0.0,0.0,0.0,0.0,0.0,0.0,0.0
1762670794.3167734,1.9241633501175282e-17,-1.4436679339632075e-17,0.1581123338925281,5.0,0.0,1.5,1.233533519198362e-16,1.7325544591191074e-16,-3.447432674257386e-19,2.7006112050960946e-16,-2.0710926571875943e-16,0.8487439851855734,1.6485590340650195e-15,2.4090510579349978e-15,-6.6284905062719794e-18,0.0,0.0,0.0,0.0,0.0,0.0,0.0,0.0,0.0,0.0,0.0,0.0,0.0,0.0,0.0,0.0,0.0,0.0,0.0,0.0,0.0,0.0,0.0,0.0
1762670794.3180509,1.9505959048581084e-17,-1.4639865375952383e-17,0.1589561728777137,5.0,0.0,1.5,1.2500110826718558e-16,1.7566438661550894e-16,-3.5137175764242377e-19,2.700611205096095e-16,-2.0710926571875946e-16,0.8389339851855734,1.6469537148301951e-15,2.4088306119328197e-15,-6.628489927194977e-18,0.0,0.0,0.0,0.0,0.0,0.0,0.0,0.0,0.0,0.0,0.0,0.0,0.0,0.0,0.0,0.0,0.0,0.0,0.0,0.0,0.0,0.0,0.0,0.0
1762670794.319379,1.9505959048581084e-17,-1.4639865375952383e-17,0.1589561728777137,5.0,0.0,1.5,1.2500110826718558e-16,1.7566438661550894e-16,-3.5137175764242377e-19,2.700611205096095e-16,-2.0710926571875946e-16,0.8389339851855734,1.6469537148301951e-15,2.4088306119328197e-15,-6.628489927194977e-18,0.0,0.0,0.0,0.0,0.0,0.0,0.0,0.0,0.0,0.0,0.0,0.0,0.0,0.0,0.0,0.0,0.0,0.0,0.0,0.0,0.0,0.0,0.0,0.0
1762670794.3207247,1.9505959048581084e-17,-1.4639865375952383e-17,0.1589561728777137,5.0,0.0,1.5,1.2500110826718558e-16,1.7566438661550894e-16,-3.5137175764242377e-19,2.700611205096095e-16,-2.0710926571875946e-16,0.8389339851855734,1.6469537148301951e-15,2.4088306119328197e-15,-6.628489927194977e-18,0.0,0.0,0.0,0.0,0.0,0.0,0.0,0.0,0.0,0.0,0.0,0.0,0.0,0.0,0.0,0.0,0.0,0.0,0.0,0.0,0.0,0.0,0.0,0.0
1762670794.322159,1.9770285118997695e-17,-1.484305523407752e-17,0.15979020186289927,5.0,0.0,1.5,1.2664725945650668e-16,1.7807310765456848e-16,-3.5800024728032e-19,2.7006112050960946e-16,-2.0710926571875943e-16,0.8291239851855734,1.6453487166426558e-15,2.408611722385767e-15,-6.6284893486939365e-18,0.0,0.0,0.0,0.0,0.0,0.0,0.0,0.0,0.0,0.0,0.0,0.0,0.0,0.0,0.0,0.0,0.0,0.0,0.0,0.0,0.0,0.0,0.0,0.0
1762670794.323479,1.9770285118997695e-17,-1.484305523407752e-17,0.15979020186289927,5.0,0.0,1.5,1.2664725945650668e-16,1.7807310765456848e-16,-3.5800024728032e-19,2.7006112050960946e-16,-2.0710926571875943e-16,0.8291239851855734,1.6453487166426558e-15,2.408611722385767e-15,-6.6284893486939365e-18,0.0,0.0,0.0,0.0,0.0,0.0,0.0,0.0,0.0,0.0,0.0,0.0,0.0,0.0,0.0,0.0,0.0,0.0,0.0,0.0,0.0,0.0,0.0,0.0
1762670794.3247077,1.9770285118997695e-17,-1.484305523407752e-17,0.15979020186289927,5.0,0.0,1.5,1.2664725945650668e-16,1.7807310765456848e-16,-3.5800024728032e-19,2.7006112050960946e-16,-2.0710926571875943e-16,0.8291239851855734,1.6453487166426558e-15,2.408611722385767e-15,-6.6284893486939365e-18,0.0,0.0,0.0,0.0,0.0,0.0,0.0,0.0,0.0,0.0,0.0,0.0,0.0,0.0,0.0,0.0,0.0,0.0,0.0,0.0,0.0,0.0,0.0,0.0
1762670794.3259792,2.003461144308105e-17,-1.5046243845232947e-17,0.16061442084808483,5.0,0.0,1.5,1.2829393437310658e-16,1.8048172215359502e-16,-3.6462873634000285e-19,2.7006112050960946e-16,-2.0710926571875943e-16,0.8193139851855734,1.6474690173510985e-15,2.4085896269548305e-15,-6.628488770768287e-18,0.0,0.0,0.0,0.0,0.0,0.0,0.0,0.0,0.0,0.0,0.0,0.0,0.0,0.0,0.0,0.0,0.0,0.0,0.0,0.0,0.0,0.0,0.0,0.0
1762670794.3272314,2.003461144308105e-17,-1.5046243845232947e-17,0.16061442084808483,5.0,0.0,1.5,1.2829393437310658e-16,1.8048172215359502e-16,-3.6462873634000285e-19,2.7006112050960946e-16,-2.0710926571875943e-16,0.8193139851855734,1.6474690173510985e-15,2.4085896269548305e-15,-6.628488770768287e-18,0.0,0.0,0.0,0.0,0.0,0.0,0.0,0.0,0.0,0.0,0.0,0.0,0.0,0.0,0.0,0.0,0.0,0.0,0.0,0.0,0.0,0.0,0.0,0.0
1762670794.328581,2.003461144308105e-17,-1.5046243845232947e-17,0.16061442084808483,5.0,0.0,1.5,1.2829393437310658e-16,1.8048172215359502e-16,-3.6462873634000285e-19,2.7006112050960946e-16,-2.0710926571875943e-16,0.8193139851855734,1.6474690173510985e-15,2.4085896269548305e-15,-6.628488770768287e-18,0.0,0.0,0.0,0.0,0.0,0.0,0.0,0.0,0.0,0.0,0.0,0.0,0.0,0.0,0.0,0.0,0.0,0.0,0.0,0.0,0.0,0.0,0.0,0.0
1762670794.3300998,2.029893788445023e-17,-1.5249428674823792e-17,0.1614288298332704,5.0,0.0,1.5,1.2994219754682998e-16,1.828902873925757e-16,-3.7125722482204755e-19,2.7006112050960946e-16,-2.0710926571875943e-16,0.8095039851855734,1.6490573623387106e-15,2.408541091045498e-15,-6.628488193417454e-18,0.0,0.0,0.0,0.0,0.0,0.0,0.0,0.0,0.0,0.0,0.0,0.0,0.0,0.0,0.0,0.0,0.0,0.0,0.0,0.0,0.0,0.0,0.0,0.0
1762670794.3315108,2.029893788445023e-17,-1.5249428674823792e-17,0.1614288298332704,5.0,0.0,1.5,1.2994219754682998e-16,1.828902873925757e-16,-3.7125722482204755e-19,2.7006112050960946e-16,-2.0710926571875943e-16,0.8095039851855734,1.6490573623387106e-15,2.408541091045498e-15,-6.628488193417454e-18,0.0,0.0,0.0,0.0,0.0,0.0,0.0,0.0,0.0,0.0,0.0,0.0,0.0,0.0,0.0,0.0,0.0,0.0,0.0,0.0,0.0,0.0,0.0,0.0
1762670794.3327374,2.029893788445023e-17,-1.5249428674823792e-17,0.1614288298332704,5.0,0.0,1.5,1.2994219754682998e-16,1.828902873925757e-16,-3.7125722482204755e-19,2.7006112050960946e-16,-2.0710926571875943e-16,0.8095039851855734,1.6490573623387106e-15,2.408541091045498e-15,-6.628488193417454e-18,0.0,0.0,0.0,0.0,0.0,0.0,0.0,0.0,0.0,0.0,0.0,0.0,0.0,0.0,0.0,0.0,0.0,0.0,0.0,0.0,0.0,0.0,0.0,0.0
1762670794.334082,2.0563264439680825e-17,-1.545260972241252e-17,0.16223342881845595,5.0,0.0,1.5,1.3159204916144437e-16,1.852988048097619e-16,-3.7788571272702857e-19,2.7006112050960946e-16,-2.071092657187594e-16,0.7996939851855734,1.6506458983176e-15,2.4084939774361018e-15,-6.628487616640868e-18,0.0,0.0,0.0,0.0,0.0,0.0,0.0,0.0,0.0,0.0,0.0,0.0,0.0,0.0,0.0,0.0,0.0,0.0,0.0,0.0,0.0,0.0,0.0,0.0
1762670794.3352633,2.0563264439680825e-17,-1.545260972241252e-17,0.16223342881845595,5.0,0.0,1.5,1.3159204916144437e-16,1.852988048097619e-16,-3.7788571272702857e-19,2.7006112050960946e-16,-2.071092657187594e-16,0.7996939851855734,1.6506458983176e-15,2.4084939774361018e-15,-6.628487616640868e-18,0.0,0.0,0.0,0.0,0.0,0.0,0.0,0.0,0.0,0.0,0.0,0.0,0.0,0.0,0.0,0.0,0.0,0.0,0.0,0.0,0.0,0.0,0.0,0.0
1762670794.3365834,2.0563264439680825e-17,-1.545260972241252e-17,0.16223342881845595,5.0,0.0,1.5,1.3159204916144437e-16,1.852988048097619e-16,-3.7788571272702857e-19,2.7006112050960946e-16,-2.071092657187594e-16,0.7996939851855734,1.6506458983176e-15,2.4084939774361018e-15,-6.628487616640868e-18,0.0,0.0,0.0,0.0,0.0,0.0,0.0,0.0,0.0,0.0,0.0,0.0,0.0,0.0,0.0,0.0,0.0,0.0,0.0,0.0,0.0,0.0,0.0,0.0
1762670794.3380237,2.082759110542842e-17,-1.5655786987550158e-17,0.16302821780364152,5.0,0.0,1.5,1.3324348940551485e-16,1.8770727580980725e-16,-3.8451420005551986e-19,2.7006112050960946e-16,-2.071092657187594e-16,0.7898839851855735,1.652234620455306e-15,2.4084482509753222e-15,-6.628487040437956e-18,0.0,0.0,0.0,0.0,0.0,0.0,0.0,0.0,0.0,0.0,0.0,0.0,0.0,0.0,0.0,0.0,0.0,0.0,0.0,0.0,0.0,0.0,0.0,0.0
1762670794.3393266,2.082759110542842e-17,-1.5655786987550158e-17,0.16302821780364152,5.0,0.0,1.5,1.3324348940551485e-16,1.8770727580980725e-16,-3.8451420005551986e-19,2.7006112050960946e-16,-2.071092657187594e-16,0.7898839851855735,1.652234620455306e-15,2.4084482509753222e-15,-6.628487040437956e-18,0.0,0.0,0.0,0.0,0.0,0.0,0.0,0.0,0.0,0.0,0.0,0.0,0.0,0.0,0.0,0.0,0.0,0.0,0.0,0.0,0.0,0.0,0.0,0.0
1762670794.3405266,2.082759110542842e-17,-1.5655786987550158e-17,0.16302821780364152,5.0,0.0,1.5,1.3324348940551485e-16,1.8770727580980725e-16,-3.8451420005551986e-19,2.7006112050960946e-16,-2.071092657187594e-16,0.7898839851855735,1.652234620455306e-15,2.4084482509753222e-15,-6.628487040437956e-18,0.0,0.0,0.0,0.0,0.0,0.0,0.0,0.0,0.0,0.0,0.0,0.0,0.0,0.0,0.0,0.0,0.0,0.0,0.0,0.0,0.0,0.0,0.0,0.0
1762670794.3418553,2.1091916704137055e-17,-1.585896046979911e-17,0.16381319678882708,5.0,0.0,1.5,1.3489651846283308e-16,1.9011619496621658e-16,-3.9114268680809493e-19,2.7006112050960946e-16,-2.0710926571875938e-16,0.7800739851855735,1.6538235240369145e-15,2.409266975810233e-15,-6.628486464808147e-18,0.0,0.0,0.0,0.0,0.0,0.0,0.0,0.0,0.0,0.0,0.0,0.0,0.0,0.0,0.0,0.0,0.0,0.0,0.0,0.0,0.0,0.0,0.0,0.0
1762670794.3430424,2.1091916704137055e-17,-1.585896046979911e-17,0.16381319678882708,5.0,0.0,1.5,1.3489651846283308e-16,1.9011619496621658e-16,-3.9114268680809493e-19,2.7006112050960946e-16,-2.0710926571875938e-16,0.7800739851855735,1.6538235240369145e-15,2.409266975810233e-15,-6.628486464808147e-18,0.0,0.0,0.0,0.0,0.0,0.0,0.0,0.0,0.0,0.0,0.0,0.0,0.0,0.0,0.0,0.0,0.0,0.0,0.0,0.0,0.0,0.0,0.0,0.0
1762670794.3444166,2.1091916704137055e-17,-1.585896046979911e-17,0.16381319678882708,5.0,0.0,1.5,1.3489651846283308e-16,1.9011619496621658e-16,-3.9114268680809493e-19,2.7006112050960946e-16,-2.0710926571875938e-16,0.7800739851855735,1.6538235240369145e-15,2.409266975810233e-15,-6.628486464808147e-18,0.0,0.0,0.0,0.0,0.0,0.0,0.0,0.0,0.0,0.0,0.0,0.0,0.0,0.0,0.0,0.0,0.0,0.0,0.0,0.0,0.0,0.0,0.0,0.0
1762670794.3457816,2.1356242085593265e-17,-1.6062130168732868e-17,0.16458836577401265,5.0,0.0,1.5,1.3655113651253344e-16,1.9252520536864397e-16,-3.977711729853264e-19,2.700611205096094e-16,-2.0710926571875936e-16,0.7702639851855735,1.655412604462225e-15,2.4089052372523336e-15,-6.628485889750874e-18,0.0,0.0,0.0,0.0,0.0,0.0,0.0,0.0,0.0,0.0,0.0,0.0,0.0,0.0,0.0,0.0,0.0,0.0,0.0,0.0,0.0,0.0,0.0,0.0
1762670794.3471353,2.1356242085593265e-17,-1.6062130168732868e-17,0.16458836577401265,5.0,0.0,1.5,1.3655113651253344e-16,1.9252520536864397e-16,-3.977711729853264e-19,2.700611205096094e-16,-2.0710926571875936e-16,0.7702639851855735,1.655412604462225e-15,2.4089052372523336e-15,-6.628485889750874e-18,0.0,0.0,0.0,0.0,0.0,0.0,0.0,0.0,0.0,0.0,0.0,0.0,0.0,0.0,0.0,0.0,0.0,0.0,0.0,0.0,0.0,0.0,0.0,0.0
1762670794.3484251,2.1356242085593265e-17,-1.6062130168732868e-17,0.16458836577401265,5.0,0.0,1.5,1.3655113651253344e-16,1.9252520536864397e-16,-3.977711729853264e-19,2.700611205096094e-16,-2.0710926571875936e-16,0.7702639851855735,1.655412604462225e-15,2.4089052372523336e-15,-6.628485889750874e-18,0.0,0.0,0.0,0.0,0.0,0.0,0.0,0.0,0.0,0.0,0.0,0.0,0.0,0.0,0.0,0.0,0.0,0.0,0.0,0.0,0.0,0.0,0.0,0.0
1762670794.3496952,2.1620567966769716e-17,-1.626529608393574e-17,0.1653537247591982,5.0,0.0,1.5,1.3820734372920626e-16,1.9493400588857003e-16,-4.043996585877866e-19,2.700611205096096e-16,-2.071092657187595e-16,0.7604539851855735,1.6570018572429865e-15,2.408696018446503e-15,-6.6284853152655654e-18,0.0,0.0,0.0,0.0,0.0,0.0,0.0,0.0,0.0,0.0,0.0,0.0,0.0,0.0,0.0,0.0,0.0,0.0,0.0,0.0,0.0,0.0,0.0,0.0
1762670794.350985,2.1620567966769716e-17,-1.626529608393574e-17,0.1653537247591982,5.0,0.0,1.5,1.3820734372920626e-16,1.9493400588857003e-16,-4.043996585877866e-19,2.700611205096096e-16,-2.071092657187595e-16,0.7604539851855735,1.6570018572429865e-15,2.408696018446503e-15,-6.6284853152655654e-18,0.0,0.0,0.0,0.0,0.0,0.0,0.0,0.0,0.0,0.0,0.0,0.0,0.0,0.0,0.0,0.0,0.0,0.0,0.0,0.0,0.0,0.0,0.0,0.0
1762670794.3521955,2.1620567966769716e-17,-1.626529608393574e-17,0.1653537247591982,5.0,0.0,1.5,1.3820734372920626e-16,1.9493400588857003e-16,-4.043996585877866e-19,2.700611205096096e-16,-2.071092657187595e-16,0.7604539851855735,1.6570018572429865e-15,2.408696018446503e-15,-6.6284853152655654e-18,0.0,0.0,0.0,0.0,0.0,0.0,0.0,0.0,0.0,0.0,0.0,0.0,0.0,0.0,0.0,0.0,0.0,0.0,0.0,0.0,0.0,0.0,0.0,0.0
1762670794.3535767,2.188489434455733e-17,-1.6468458215002592e-17,0.16610927374438378,5.0,0.0,1.5,1.3986514028300854e-16,1.9734259783180813e-16,-4.1102814361604733e-19,2.700611205096095e-16,-2.0710926571875943e-16,0.7506439851855735,1.658591278000201e-15,2.408488078519502e-15,-6.628484741351653e-18,0.0,0.0,0.0,0.0,0.0,0.0,0.0,0.0,0.0,0.0,0.0,0.0,0.0,0.0,0.0,0.0,0.0,0.0,0.0,0.0,0.0,0.0,0.0,0.0
1762670794.3549783,2.188489434455733e-17,-1.6468458215002592e-17,0.16610927374438378,5.0,0.0,1.5,1.3986514028300854e-16,1.9734259783180813e-16,-4.1102814361604733e-19,2.700611205096095e-16,-2.0710926571875943e-16,0.7506439851855735,1.658591278000201e-15,2.408488078519502e-15,-6.628484741351653e-18,0.0,0.0,0.0,0.0,0.0,0.0,0.0,0.0,0.0,0.0,0.0,0.0,0.0,0.0,0.0,0.0,0.0,0.0,0.0,0.0,0.0,0.0,0.0,0.0
1762670794.3562982,2.188489434455733e-17,-1.6468458215002592e-17,0.16610927374438378,5.0,0.0,1.5,1.3986514028300854e-16,1.9734259783180813e-16,-4.1102814361604733e-19,2.700611205096095e-16,-2.0710926571875943e-16,0.7506439851855735,1.658591278000201e-15,2.408488078519502e-15,-6.628484741351653e-18,0.0,0.0,0.0,0.0,0.0,0.0,0.0,0.0,0.0,0.0,0.0,0.0,0.0,0.0,0.0,0.0,0.0,0.0,0.0,0.0,0.0,0.0,0.0,0.0
1762670794.3576021,2.2149221016672418e-17,-1.667161656153858e-17,0.16685501272956935,5.0,0.0,1.5,1.4152452633977178e-16,1.9975106615750758e-16,-4.1765662807067953e-19,2.700611205096095e-16,-2.0710926571875943e-16,0.7408339851855735,1.6601808624614895e-15,2.4084487666454027e-15,-6.628484168008568e-18,0.0,0.0,0.0,0.0,0.0,0.0,0.0,0.0,0.0,0.0,0.0,0.0,0.0,0.0,0.0,0.0,0.0,0.0,0.0,0.0,0.0,0.0,0.0,0.0
1762670794.358932,2.2149221016672418e-17,-1.667161656153858e-17,0.16685501272956935,5.0,0.0,1.5,1.4152452633977178e-16,1.9975106615750758e-16,-4.1765662807067953e-19,2.700611205096095e-16,-2.0710926571875943e-16,0.7408339851855735,1.6601808624614895e-15,2.4084487666454027e-15,-6.628484168008568e-18,0.0,0.0,0.0,0.0,0.0,0.0,0.0,0.0,0.0,0.0,0.0,0.0,0.0,0.0,0.0,0.0,0.0,0.0,0.0,0.0,0.0,0.0,0.0,0.0
1762670794.360144,2.2149221016672418e-17,-1.667161656153858e-17,0.16685501272956935,5.0,0.0,1.5,1.4152452633977178e-16,1.9975106615750758e-16,-4.1765662807067953e-19,2.700611205096095e-16,-2.0710926571875943e-16,0.7408339851855735,1.6601808624614895e-15,2.4084487666454027e-15,-6.628484168008568e-18,0.0,0.0,0.0,0.0,0.0,0.0,0.0,0.0,0.0,0.0,0.0,0.0,0.0,0.0,0.0,0.0,0.0,0.0,0.0,0.0,0.0,0.0,0.0,0.0
1762670794.3615289,2.24135479138158e-17,-1.687477112315892e-17,0.16759094171475492,5.0,0.0,1.5,1.4318550206110729e-16,2.0215943997132455e-16,-4.242851119522539e-19,2.7006112050960946e-16,-2.071092657187594e-16,0.7310239851855735,1.6617706064585224e-15,2.4083827574495975e-15,-6.6284835952357414e-18,0.0,0.0,0.0,0.0,0.0,0.0,0.0,0.0,0.0,0.0,0.0,0.0,0.0,0.0,0.0,0.0,0.0,0.0,0.0,0.0,0.0,0.0,0.0,0.0
1762670794.3630123,2.24135479138158e-17,-1.687477112315892e-17,0.16759094171475492,5.0,0.0,1.5,1.4318550206110729e-16,2.0215943997132455e-16,-4.242851119522539e-19,2.7006112050960946e-16,-2.071092657187594e-16,0.7310239851855735,1.6617706064585224e-15,2.4083827574495975e-15,-6.6284835952357414e-18,0.0,0.0,0.0,0.0,0.0,0.0,0.0,0.0,0.0,0.0,0.0,0.0,0.0,0.0,0.0,0.0,0.0,0.0,0.0,0.0,0.0,0.0,0.0,0.0
1762670794.3642824,2.24135479138158e-17,-1.687477112315892e-17,0.16759094171475492,5.0,0.0,1.5,1.4318550206110729e-16,2.0215943997132455e-16,-4.242851119522539e-19,2.7006112050960946e-16,-2.071092657187594e-16,0.7310239851855735,1.6617706064585224e-15,2.4083827574495975e-15,-6.6284835952357414e-18,0.0,0.0,0.0,0.0,0.0,0.0,0.0,0.0,0.0,0.0,0.0,0.0,0.0,0.0,0.0,0.0,0.0,0.0,0.0,0.0,0.0,0.0,0.0,0.0
1762670794.36559,2.267787483388153e-17,-1.7077921899488627e-17,0.16831706069994049,5.0,0.0,1.5,1.4484806760450904e-16,2.04567804157755e-16,-4.3091359526134027e-19,2.7006112050960956e-16,-2.0710926571875946e-16,0.7212139851855736,1.6633605059245128e-15,2.408345806970235e-15,-6.628483023032608e-18,0.0,0.0,0.0,0.0,0.0,0.0,0.0,0.0,0.0,0.0,0.0,0.0,0.0,0.0,0.0,0.0,0.0,0.0,0.0,0.0,0.0,0.0,0.0,0.0
1762670794.366869,2.267787483388153e-17,-1.7077921899488627e-17,0.16831706069994049,5.0,0.0,1.5,1.4484806760450904e-16,2.04567804157755e-16,-4.3091359526134027e-19,2.7006112050960956e-16,-2.0710926571875946e-16,0.7212139851855736,1.6633605059245128e-15,2.408345806970235e-15,-6.628483023032608e-18,0.0,0.0,0.0,0.0,0.0,0.0,0.0,0.0,0.0,0.0,0.0,0.0,0.0,0.0,0.0,0.0,0.0,0.0,0.0,0.0,0.0,0.0,0.0,0.0
1762670794.3680882,2.267787483388153e-17,-1.7077921899488627e-17,0.16831706069994049,5.0,0.0,1.5,1.4484806760450904e-16,2.04567804157755e-16,-4.3091359526134027e-19,2.7006112050960956e-16,-2.0710926571875946e-16,0.7212139851855736,1.6633605059245128e-15,2.408345806970235e-15,-6.628483023032608e-18,0.0,0.0,0.0,0.0,0.0,0.0,0.0,0.0,0.0,0.0,0.0,0.0,0.0,0.0,0.0,0.0,0.0,0.0,0.0,0.0,0.0,0.0,0.0,0.0
1762670794.3694215,2.2942201840567815e-17,-1.7281068890162278e-17,0.16903336968512606,5.0,0.0,1.5,1.46512223123454e-16,2.0697613196355007e-16,-4.375420779985082e-19,2.7006112050960956e-16,-2.0710926571875946e-16,0.7114039851855736,1.664950556891768e-15,2.4083099914044326e-15,-6.6284824513986e-18,0.0,0.0,0.0,0.0,0.0,0.0,0.0,0.0,0.0,0.0,0.0,0.0,0.0,0.0,0.0,0.0,0.0,0.0,0.0,0.0,0.0,0.0,0.0,0.0
1762670794.3708527,2.2942201840567815e-17,-1.7281068890162278e-17,0.16903336968512606,5.0,0.0,1.5,1.46512223123454e-16,2.0697613196355007e-16,-4.375420779985082e-19,2.7006112050960956e-16,-2.0710926571875946e-16,0.7114039851855736,1.664950556891768e-15,2.4083099914044326e-15,-6.6284824513986e-18,0.0,0.0,0.0,0.0,0.0,0.0,0.0,0.0,0.0,0.0,0.0,0.0,0.0,0.0,0.0,0.0,0.0,0.0,0.0,0.0,0.0,0.0,0.0,0.0
1762670794.372307,2.2942201840567815e-17,-1.7281068890162278e-17,0.16903336968512606,5.0,0.0,1.5,1.46512223123454e-16,2.0697613196355007e-16,-4.375420779985082e-19,2.7006112050960956e-16,-2.0710926571875946e-16,0.7114039851855736,1.664950556891768e-15,2.4083099914044326e-15,-6.6284824513986e-18,0.0,0.0,0.0,0.0,0.0,0.0,0.0,0.0,0.0,0.0,0.0,0.0,0.0,0.0,0.0,0.0,0.0,0.0,0.0,0.0,0.0,0.0,0.0,0.0
1762670794.373596,2.3206527756912074e-17,-1.7484212094823785e-17,0.16973986867031163,5.0,0.0,1.5,1.4817796876749999e-16,2.093849177129976e-16,-4.441705601643263e-19,2.7006112050960956e-16,-2.0710926571875946e-16,0.7015939851855736,1.6665407554893008e-15,2.40913838091157e-15,-6.628481880333153e-18,0.0,0.0,0.0,0.0,0.0,0.0,0.0,0.0,0.0,0.0,0.0,0.0,0.0,0.0,0.0,0.0,0.0,0.0,0.0,0.0,0.0,0.0,0.0,0.0
1762670794.3748255,2.3206527756912074e-17,-1.7484212094823785e-17,0.16973986867031163,5.0,0.0,1.5,1.4817796876749999e-16,2.093849177129976e-16,-4.441705601643263e-19,2.7006112050960956e-16,-2.0710926571875946e-16,0.7015939851855736,1.6665407554893008e-15,2.40913838091157e-15,-6.628481880333153e-18,0.0,0.0,0.0,0.0,0.0,0.0,0.0,0.0,0.0,0.0,0.0,0.0,0.0,0.0,0.0,0.0,0.0,0.0,0.0,0.0,0.0,0.0,0.0,0.0
1762670794.376009,2.3206527756912074e-17,-1.7484212094823785e-17,0.16973986867031163,5.0,0.0,1.5,1.4817796876749999e-16,2.093849177129976e-16,-4.441705601643263e-19,2.7006112050960956e-16,-2.0710926571875946e-16,0.7015939851855736,1.6665407554893008e-15,2.40913838091157e-15,-6.628481880333153e-18,0.0,0.0,0.0,0.0,0.0,0.0,0.0,0.0,0.0,0.0,0.0,0.0,0.0,0.0,0.0,0.0,0.0,0.0,0.0,0.0,0.0,0.0,0.0,0.0
1762670794.3773208,2.3470853433280068e-17,-1.7687351513126163e-17,0.1704365576554972,5.0,0.0,1.5,1.4984530468238122e-16,2.1179380425247592e-16,-4.507990417593631e-19,2.7006112050960946e-16,-2.0710926571875943e-16,0.6917839851855736,1.6681310979404989e-15,2.4087860666735666e-15,-6.628481309835699e-18,0.0,0.0,0.0,0.0,0.0,0.0,0.0,0.0,0.0,0.0,0.0,0.0,0.0,0.0,0.0,0.0,0.0,0.0,0.0,0.0,0.0,0.0,0.0,0.0
1762670794.3786201,2.3470853433280068e-17,-1.7687351513126163e-17,0.1704365576554972,5.0,0.0,1.5,1.4984530468238122e-16,2.1179380425247592e-16,-4.507990417593631e-19,2.7006112050960946e-16,-2.0710926571875943e-16,0.6917839851855736,1.6681310979404989e-15,2.4087860666735666e-15,-6.628481309835699e-18,0.0,0.0,0.0,0.0,0.0,0.0,0.0,0.0,0.0,0.0,0.0,0.0,0.0,0.0,0.0,0.0,0.0,0.0,0.0,0.0,0.0,0.0,0.0,0.0
1762670794.3800948,2.3470853433280068e-17,-1.7687351513126163e-17,0.1704365576554972,5.0,0.0,1.5,1.4984530468238122e-16,2.1179380425247592e-16,-4.507990417593631e-19,2.7006112050960946e-16,-2.0710926571875943e-16,0.6917839851855736,1.6681310979404989e-15,2.4087860666735666e-15,-6.628481309835699e-18,0.0,0.0,0.0,0.0,0.0,0.0,0.0,0.0,0.0,0.0,0.0,0.0,0.0,0.0,0.0,0.0,0.0,0.0,0.0,0.0,0.0,0.0,0.0,0.0
1762670794.3815684,2.373517958720988e-17,-1.7890487144731303e-17,0.17112343664068277,5.0,0.0,1.5,1.515142310101015e-16,2.1420249021599052e-16,-4.574275227841861e-19,2.700611205096095e-16,-2.0710926571875948e-16,0.6819739851855736,1.6697215805608497e-15,2.4085860375671718e-15,-6.628480739905675e-18,0.0,0.0,0.0,0.0,0.0,0.0,0.0,0.0,0.0,0.0,0.0,0.0,0.0,0.0,0.0,0.0,0.0,0.0,0.0,0.0,0.0,0.0,0.0,0.0
1762670794.3829095,2.373517958720988e-17,-1.7890487144731303e-17,0.17112343664068277,5.0,0.0,1.5,1.515142310101015e-16,2.1420249021599052e-16,-4.574275227841861e-19,2.700611205096095e-16,-2.0710926571875948e-16,0.6819739851855736,1.6697215805608497e-15,2.4085860375671718e-15,-6.628480739905675e-18,0.0,0.0,0.0,0.0,0.0,0.0,0.0,0.0,0.0,0.0,0.0,0.0,0.0,0.0,0.0,0.0,0.0,0.0,0.0,0.0,0.0,0.0,0.0,0.0
1762670794.384159,2.373517958720988e-17,-1.7890487144731303e-17,0.17112343664068277,5.0,0.0,1.5,1.515142310101015e-16,2.1420249021599052e-16,-4.574275227841861e-19,2.700611205096095e-16,-2.0710926571875948e-16,0.6819739851855736,1.6697215805608497e-15,2.4085860375671718e-15,-6.628480739905675e-18,0.0,0.0,0.0,0.0,0.0,0.0,0.0,0.0,0.0,0.0,0.0,0.0,0.0,0.0,0.0,0.0,0.0,0.0,0.0,0.0,0.0,0.0,0.0,0.0
1762670794.3854384,2.3999506216144362e-17,-1.809361898930977e-17,0.17180050562586835,5.0,0.0,1.5,1.531847478890253e-16,2.166109766775438e-16,-4.640560032393627e-19,2.700611205096096e-16,-2.071092657187595e-16,0.6721639851855736,1.6713121997557189e-15,2.4083870583157317e-15,-6.628480170542516e-18,0.0,0.0,0.0,0.0,0.0,0.0,0.0,0.0,0.0,0.0,0.0,0.0,0.0,0.0,0.0,0.0,0.0,0.0,0.0,0.0,0.0,0.0,0.0,0.0
1762670794.3866813,2.3999506216144362e-17,-1.809361898930977e-17,0.17180050562586835,5.0,0.0,1.5,1.531847478890253e-16,2.166109766775438e-16,-4.640560032393627e-19,2.700611205096096e-16,-2.071092657187595e-16,0.6721639851855736,1.6713121997557189e-15,2.4083870583157317e-15,-6.628480170542516e-18,0.0,0.0,0.0,0.0,0.0,0.0,0.0,0.0,0.0,0.0,0.0,0.0,0.0,0.0,0.0,0.0,0.0,0.0,0.0,0.0,0.0,0.0,0.0,0.0
1762670794.3880134,2.3999506216144362e-17,-1.809361898930977e-17,0.17180050562586835,5.0,0.0,1.5,1.531847478890253e-16,2.166109766775438e-16,-4.640560032393627e-19,2.700611205096096e-16,-2.071092657187595e-16,0.6721639851855736,1.6713121997557189e-15,2.4083870583157317e-15,-6.628480170542516e-18,0.0,0.0,0.0,0.0,0.0,0.0,0.0,0.0,0.0,0.0,0.0,0.0,0.0,0.0,0.0,0.0,0.0,0.0,0.0,0.0,0.0,0.0,0.0,0.0
1762670794.389414,2.4263833317615285e-17,-1.829674704654057e-17,0.17246776461105393,5.0,0.0,1.5,1.5485685545396642e-16,2.1901926467379223e-16,-4.706844831254591e-19,2.7006112050960956e-16,-2.0710926571875946e-16,0.6623539851855736,1.6729029520181848e-15,2.408189102628053e-15,-6.628479601745658e-18,0.0,0.0,0.0,0.0,0.0,0.0,0.0,0.0,0.0,0.0,0.0,0.0,0.0,0.0,0.0,0.0,0.0,0.0,0.0,0.0,0.0,0.0,0.0,0.0
1762670794.3906555,2.4263833317615285e-17,-1.829674704654057e-17,0.17246776461105393,5.0,0.0,1.5,1.5485685545396642e-16,2.1901926467379223e-16,-4.706844831254591e-19,2.7006112050960956e-16,-2.0710926571875946e-16,0.6623539851855736,1.6729029520181848e-15,2.408189102628053e-15,-6.628479601745658e-18,0.0,0.0,0.0,0.0,0.0,0.0,0.0,0.0,0.0,0.0,0.0,0.0,0.0,0.0,0.0,0.0,0.0,0.0,0.0,0.0,0.0,0.0,0.0,0.0
1762670794.3919325,2.4263833317615285e-17,-1.829674704654057e-17,0.17246776461105393,5.0,0.0,1.5,1.5485685545396642e-16,2.1901926467379223e-16,-4.706844831254591e-19,2.7006112050960956e-16,-2.0710926571875946e-16,0.6623539851855736,1.6729029520181848e-15,2.408189102628053e-15,-6.628479601745658e-18,0.0,0.0,0.0,0.0,0.0,0.0,0.0,0.0,0.0,0.0,0.0,0.0,0.0,0.0,0.0,0.0,0.0,0.0,0.0,0.0,0.0,0.0,0.0,0.0
1762670794.39319,2.4528160689939572e-17,-1.8499873850120885e-17,0.1731252135962395,5.0,0.0,1.5,1.5652948955211293e-16,2.2142743891162835e-16,-4.773129624430418e-19,2.7006112050960946e-16,-2.071092657187594e-16,0.6525439851855737,1.6726313409553106e-15,2.408159525770722e-15,-6.628479033514537e-18,0.0,0.0,0.0,0.0,0.0,0.0,0.0,0.0,0.0,0.0,0.0,0.0,0.0,0.0,0.0,0.0,0.0,0.0,0.0,0.0,0.0,0.0,0.0,0.0
1762670794.3944607,2.4528160689939572e-17,-1.8499873850120885e-17,0.1731252135962395,5.0,0.0,1.5,1.5652948955211293e-16,2.2142743891162835e-16,-4.773129624430418e-19,2.7006112050960946e-16,-2.071092657187594e-16,0.6525439851855737,1.6726313409553106e-15,2.408159525770722e-15,-6.628479033514537e-18,0.0,0.0,0.0,0.0,0.0,0.0,0.0,0.0,0.0,0.0,0.0,0.0,0.0,0.0,0.0,0.0,0.0,0.0,0.0,0.0,0.0,0.0,0.0,0.0
1762670794.3957496,2.4528160689939572e-17,-1.8499873850120885e-17,0.1731252135962395,5.0,0.0,1.5,1.5652948955211293e-16,2.2142743891162835e-16,-4.773129624430418e-19,2.7006112050960946e-16,-2.071092657187594e-16,0.6525439851855737,1.6726313409553106e-15,2.408159525770722e-15,-6.628479033514537e-18,0.0,0.0,0.0,0.0,0.0,0.0,0.0,0.0,0.0,0.0,0.0,0.0,0.0,0.0,0.0,0.0,0.0,0.0,0.0,0.0,0.0,0.0,0.0,0.0
1762670794.3971453,2.4792488264404316e-17,-1.8703000666675614e-17,0.17377285258142508,5.0,0.0,1.5,1.582021182010068e-16,2.2383552825047195e-16,-4.839414411926759e-19,2.7006112050960956e-16,-2.0710926571875948e-16,0.6427339851855737,1.6726259865888125e-15,2.408103008317821e-15,-6.628478465848592e-18,0.0,0.0,0.0,0.0,0.0,0.0,0.0,0.0,0.0,0.0,0.0,0.0,0.0,0.0,0.0,0.0,0.0,0.0,0.0,0.0,0.0,0.0,0.0,0.0
1762670794.3985343,2.4792488264404316e-17,-1.8703000666675614e-17,0.17377285258142508,5.0,0.0,1.5,1.582021182010068e-16,2.2383552825047195e-16,-4.839414411926759e-19,2.7006112050960956e-16,-2.0710926571875948e-16,0.6427339851855737,1.6726259865888125e-15,2.408103008317821e-15,-6.628478465848592e-18,0.0,0.0,0.0,0.0,0.0,0.0,0.0,0.0,0.0,0.0,0.0,0.0,0.0,0.0,0.0,0.0,0.0,0.0,0.0,0.0,0.0,0.0,0.0,0.0
1762670794.3998964,2.4792488264404316e-17,-1.8703000666675614e-17,0.17377285258142508,5.0,0.0,1.5,1.582021182010068e-16,2.2383552825047195e-16,-4.839414411926759e-19,2.7006112050960956e-16,-2.0710926571875948e-16,0.6427339851855737,1.6726259865888125e-15,2.408103008317821e-15,-6.628478465848592e-18,0.0,0.0,0.0,0.0,0.0,0.0,0.0,0.0,0.0,0.0,0.0,0.0,0.0,0.0,0.0,0.0,0.0,0.0,0.0,0.0,0.0,0.0,0.0,0.0
1762670794.4012313,2.5056815839475855e-17,-1.8906127495768124e-17,0.17441068156661066,5.0,0.0,1.5,1.5987474158403108e-16,2.2624361733446084e-16,-4.905699193749264e-19,2.700611205096095e-16,-2.071092657187594e-16,0.6329239851855737,1.67262080845346e-15,2.408075312115754e-15,-6.628477898747259e-18,0.0,0.0,0.0,0.0,0.0,0.0,0.0,0.0,0.0,0.0,0.0,0.0,0.0,0.0,0.0,0.0,0.0,0.0,0.0,0.0,0.0,0.0,0.0,0.0
1762670794.4024625,2.5056815839475855e-17,-1.8906127495768124e-17,0.17441068156661066,5.0,0.0,1.5,1.5987474158403108e-16,2.2624361733446084e-16,-4.905699193749264e-19,2.700611205096095e-16,-2.071092657187594e-16,0.6329239851855737,1.67262080845346e-15,2.408075312115754e-15,-6.628477898747259e-18,0.0,0.0,0.0,0.0,0.0,0.0,0.0,0.0,0.0,0.0,0.0,0.0,0.0,0.0,0.0,0.0,0.0,0.0,0.0,0.0,0.0,0.0,0.0,0.0
1762670794.4037325,2.5056815839475855e-17,-1.8906127495768124e-17,0.17441068156661066,5.0,0.0,1.5,1.5987474158403108e-16,2.2624361733446084e-16,-4.905699193749264e-19,2.700611205096095e-16,-2.071092657187594e-16,0.6329239851855737,1.67262080845346e-15,2.408075312115754e-15,-6.628477898747259e-18,0.0,0.0,0.0,0.0,0.0,0.0,0.0,0.0,0.0,0.0,0.0,0.0,0.0,0.0,0.0,0.0,0.0,0.0,0.0,0.0,0.0,0.0,0.0,0.0
1762670794.4051716,2.5321142598630048e-17,-1.9109254336984225e-17,0.17503870055179624,5.0,0.0,1.5,1.6154735987514774e-16,2.2865204910373687e-16,-4.971983969903576e-19,2.700611205096095e-16,-2.0710926571875946e-16,0.6231139851855737,1.6726158020295422e-15,2.4087883242471164e-15,-6.628477332209978e-18,0.0,0.0,0.0,0.0,0.0,0.0,0.0,0.0,0.0,0.0,0.0,0.0,0.0,0.0,0.0,0.0,0.0,0.0,0.0,0.0,0.0,0.0,0.0,0.0
1762670794.406531,2.5321142598630048e-17,-1.9109254336984225e-17,0.17503870055179624,5.0,0.0,1.5,1.6154735987514774e-16,2.2865204910373687e-16,-4.971983969903576e-19,2.700611205096095e-16,-2.0710926571875946e-16,0.6231139851855737,1.6726158020295422e-15,2.4087883242471164e-15,-6.628477332209978e-18,0.0,0.0,0.0,0.0,0.0,0.0,0.0,0.0,0.0,0.0,0.0,0.0,0.0,0.0,0.0,0.0,0.0,0.0,0.0,0.0,0.0,0.0,0.0,0.0
1762670794.4078522,2.5321142598630048e-17,-1.9109254336984225e-17,0.17503870055179624,5.0,0.0,1.5,1.6154735987514774e-16,2.2865204910373687e-16,-4.971983969903576e-19,2.700611205096095e-16,-2.0710926571875946e-16,0.6231139851855737,1.6726158020295422e-15,2.4087883242471164e-15,-6.628477332209978e-18,0.0,0.0,0.0,0.0,0.0,0.0,0.0,0.0,0.0,0.0,0.0,0.0,0.0,0.0,0.0,0.0,0.0,0.0,0.0,0.0,0.0,0.0,0.0,0.0
1762670794.4091625,2.5585469326467156e-17,-1.931237865591044e-17,0.17565690953698182,5.0,0.0,1.5,1.6322103752801627e-16,2.310604940261876e-16,-5.038268740395334e-19,2.7006112050960956e-16,-2.0710926571875946e-16,0.6133039851855737,1.674473455879244e-15,2.4084716562408052e-15,-6.628476766236189e-18,0.0,0.0,0.0,0.0,0.0,0.0,0.0,0.0,0.0,0.0,0.0,0.0,0.0,0.0,0.0,0.0,0.0,0.0,0.0,0.0,0.0,0.0,0.0,0.0
1762670794.4103808,2.5585469326467156e-17,-1.931237865591044e-17,0.17565690953698182,5.0,0.0,1.5,1.6322103752801627e-16,2.310604940261876e-16,-5.038268740395334e-19,2.7006112050960956e-16,-2.0710926571875946e-16,0.6133039851855737,1.674473455879244e-15,2.4084716562408052e-15,-6.628476766236189e-18,0.0,0.0,0.0,0.0,0.0,0.0,0.0,0.0,0.0,0.0,0.0,0.0,0.0,0.0,0.0,0.0,0.0,0.0,0.0,0.0,0.0,0.0,0.0,0.0
1762670794.4116175,2.5585469326467156e-17,-1.931237865591044e-17,0.17565690953698182,5.0,0.0,1.5,1.6322103752801627e-16,2.310604940261876e-16,-5.038268740395334e-19,2.7006112050960956e-16,-2.0710926571875946e-16,0.6133039851855737,1.674473455879244e-15,2.4084716562408052e-15,-6.628476766236189e-18,0.0,0.0,0.0,0.0,0.0,0.0,0.0,0.0,0.0,0.0,0.0,0.0,0.0,0.0,0.0,0.0,0.0,0.0,0.0,0.0,0.0,0.0,0.0,0.0
1762670794.4130263,2.584979549997103e-17,-1.9515499185223982e-17,0.1762653085221674,5.0,0.0,1.5,1.6489630681820744e-16,2.3346917176859714e-16,-5.104553505230169e-19,2.700611205096096e-16,-2.0710926571875948e-16,0.6034939851855737,1.6760651423412584e-15,2.4084303290862434e-15,-6.628476200825327e-18,0.0,0.0,0.0,0.0,0.0,0.0,0.0,0.0,0.0,0.0,0.0,0.0,0.0,0.0,0.0,0.0,0.0,0.0,0.0,0.0,0.0,0.0,0.0,0.0
1762670794.4143157,2.584979549997103e-17,-1.9515499185223982e-17,0.1762653085221674,5.0,0.0,1.5,1.6489630681820744e-16,2.3346917176859714e-16,-5.104553505230169e-19,2.700611205096096e-16,-2.0710926571875948e-16,0.6034939851855737,1.6760651423412584e-15,2.4084303290862434e-15,-6.628476200825327e-18,0.0,0.0,0.0,0.0,0.0,0.0,0.0,0.0,0.0,0.0,0.0,0.0,0.0,0.0,0.0,0.0,0.0,0.0,0.0,0.0,0.0,0.0,0.0,0.0
