timestamp,pos_x,pos_y,pos_z,target_x,target_y,target_z,roll,pitch,yaw,vel_x,vel_y,vel_z,angular_vel_x,angular_vel_y,angular_vel_z,accel_x,accel_y,accel_z,f_world_x,f_world_y,f_world_z,f_body_x,f_body_y,f_body_z,tau_x,tau_y,tau_z,u1,u2,u3,u4,u5,T12,T34,T5,alpha1,alpha2theta1,theta2
1762666370.9525955,0.0,0.0,1.075,0.0,0.0,1.5,0.0,0.0,0.0,0.0,0.0,0.0,0.0,0.0,0.0,0.0,0.0,0.0,0.0,0.0,0.0,0.0,0.0,0.0,0.0,0.0,0.0,0.0,0.0,0.0,0.0,0.0,0.0,0.0,0.0,0.0,0.0,0.0,0.0
1762666370.9544406,0.0,0.0,1.075,0.0,0.0,1.5,0.0,0.0,0.0,0.0,0.0,0.0,0.0,0.0,0.0,0.0,0.0,0.0,0.0,0.0,43.327000000000005,0.0,0.0,43.327000000000005,0.0,0.0,0.0,21.663500000000003,21.663500000000003,0.0,0.0,0.0,21.663500000000003,21.663500000000003,0.0,0.0,0.0,-0.0,-0.0
1762666370.955966,0.0,0.0,1.075,0.0,0.0,1.5,0.0,0.0,0.0,0.0,0.0,0.0,0.0,0.0,0.0,0.0,0.0,0.0,0.0,0.0,43.327000000000005,0.0,0.0,43.327000000000005,0.0,0.0,0.0,21.663500000000003,21.663500000000003,0.0,0.0,0.0,21.663500000000003,21.663500000000003,0.0,0.0,0.0,-0.0,-0.0
1762666370.9574919,0.0,0.0,1.075,0.0,0.0,1.5,0.0,0.0,0.0,0.0,0.0,0.0,0.0,0.0,0.0,0.0,0.0,0.0,0.0,0.0,43.327000000000005,0.0,0.0,43.327000000000005,0.0,0.0,0.0,21.663500000000003,21.663500000000003,0.0,0.0,0.0,21.663500000000003,21.663500000000003,0.0,0.0,0.0,-0.0,-0.0
1762666370.9590251,0.0,0.0,1.075,0.0,0.0,1.5,0.0,0.0,0.0,0.0,0.0,0.0,0.0,0.0,0.0,0.0,0.0,0.0,0.0,0.0,43.327000000000005,0.0,0.0,43.327000000000005,0.0,0.0,0.0,21.663500000000003,21.663500000000003,0.0,0.0,0.0,21.663500000000003,21.663500000000003,0.0,0.0,0.0,-0.0,-0.0
1762666370.9605138,0.0,0.0,1.075,0.0,0.0,1.5,0.0,0.0,0.0,0.0,0.0,0.0,0.0,0.0,0.0,0.0,0.0,0.0,0.0,0.0,43.327000000000005,0.0,0.0,43.327000000000005,0.0,0.0,0.0,21.663500000000003,21.663500000000003,0.0,0.0,0.0,21.663500000000003,21.663500000000003,0.0,0.0,0.0,-0.0,-0.0
1762666370.9619477,0.0,0.0,1.075,0.0,0.0,1.5,0.0,0.0,0.0,0.0,0.0,0.0,0.0,0.0,0.0,0.0,0.0,0.0,0.0,0.0,43.327000000000005,0.0,0.0,43.327000000000005,0.0,0.0,0.0,21.663500000000003,21.663500000000003,0.0,0.0,0.0,21.663500000000003,21.663500000000003,0.0,0.0,0.0,-0.0,-0.0
1762666370.9633772,0.0,0.0,1.075,0.0,0.0,1.5,0.0,0.0,0.0,0.0,0.0,0.0,0.0,0.0,0.0,0.0,0.0,0.0,0.0,0.0,43.327000000000005,0.0,0.0,43.327000000000005,0.0,0.0,0.0,21.663500000000003,21.663500000000003,0.0,0.0,0.0,21.663500000000003,21.663500000000003,0.0,0.0,0.0,-0.0,-0.0
1762666370.9648967,0.0,0.0,1.075,0.0,0.0,1.5,0.0,0.0,0.0,0.0,0.0,0.0,0.0,0.0,0.0,0.0,0.0,0.0,0.0,0.0,43.327000000000005,0.0,0.0,43.327000000000005,0.0,0.0,0.0,21.663500000000003,21.663500000000003,0.0,0.0,0.0,21.663500000000003,21.663500000000003,0.0,0.0,0.0,-0.0,-0.0
1762666370.9662886,0.0,0.0,1.075,0.0,0.0,1.5,0.0,0.0,0.0,0.0,0.0,0.0,0.0,0.0,0.0,0.0,0.0,0.0,0.0,0.0,43.327000000000005,0.0,0.0,43.327000000000005,0.0,0.0,0.0,21.663500000000003,21.663500000000003,0.0,0.0,0.0,21.663500000000003,21.663500000000003,0.0,0.0,0.0,-0.0,-0.0
1762666370.9676697,0.0,0.0,1.075,0.0,0.0,1.5,0.0,0.0,0.0,0.0,0.0,0.0,0.0,0.0,0.0,0.0,0.0,0.0,0.0,0.0,43.327000000000005,0.0,0.0,43.327000000000005,0.0,0.0,0.0,21.663500000000003,21.663500000000003,0.0,0.0,0.0,21.663500000000003,21.663500000000003,0.0,0.0,0.0,-0.0,-0.0
1762666370.9691744,0.0,0.0,1.075,0.0,0.0,1.5,0.0,0.0,0.0,0.0,0.0,0.0,0.0,0.0,0.0,0.0,0.0,0.0,0.0,0.0,43.327000000000005,0.0,0.0,43.327000000000005,0.0,0.0,0.0,21.663500000000003,21.663500000000003,0.0,0.0,0.0,21.663500000000003,21.663500000000003,0.0,0.0,0.0,-0.0,-0.0
1762666370.971123,0.0,0.0,1.075,0.0,0.0,1.5,0.0,0.0,0.0,0.0,0.0,0.0,0.0,0.0,0.0,0.0,0.0,0.0,0.0,0.0,43.327000000000005,0.0,0.0,43.327000000000005,0.0,0.0,0.0,21.663500000000003,21.663500000000003,0.0,0.0,0.0,21.663500000000003,21.663500000000003,0.0,0.0,0.0,-0.0,-0.0
1762666370.9729583,0.0,0.0,1.075,0.0,0.0,1.5,0.0,0.0,0.0,0.0,0.0,0.0,0.0,0.0,0.0,0.0,0.0,0.0,0.0,0.0,43.327000000000005,0.0,0.0,43.327000000000005,0.0,0.0,0.0,21.663500000000003,21.663500000000003,0.0,0.0,0.0,21.663500000000003,21.663500000000003,0.0,0.0,0.0,-0.0,-0.0
1762666370.9747531,0.0,0.0,1.075,0.0,0.0,1.5,0.0,0.0,0.0,0.0,0.0,0.0,0.0,0.0,0.0,0.0,0.0,0.0,0.0,0.0,43.327000000000005,0.0,0.0,43.327000000000005,0.0,0.0,0.0,21.663500000000003,21.663500000000003,0.0,0.0,0.0,21.663500000000003,21.663500000000003,0.0,0.0,0.0,-0.0,-0.0
1762666370.9764488,0.0,0.0,1.075,0.0,0.0,1.5,0.0,0.0,0.0,0.0,0.0,0.0,0.0,0.0,0.0,0.0,0.0,0.0,0.0,0.0,43.327000000000005,0.0,0.0,43.327000000000005,0.0,0.0,0.0,21.663500000000003,21.663500000000003,0.0,0.0,0.0,21.663500000000003,21.663500000000003,0.0,0.0,0.0,-0.0,-0.0
1762666370.978064,0.0,0.0,1.075,0.0,0.0,1.5,0.0,0.0,0.0,0.0,0.0,0.0,0.0,0.0,0.0,0.0,0.0,0.0,0.0,0.0,43.327000000000005,0.0,0.0,43.327000000000005,0.0,0.0,0.0,21.663500000000003,21.663500000000003,0.0,0.0,0.0,21.663500000000003,21.663500000000003,0.0,0.0,0.0,-0.0,-0.0
1762666370.979637,0.0,0.0,1.075,0.0,0.0,1.5,0.0,0.0,0.0,0.0,0.0,0.0,0.0,0.0,0.0,0.0,0.0,0.0,0.0,0.0,43.327000000000005,0.0,0.0,43.327000000000005,0.0,0.0,0.0,21.663500000000003,21.663500000000003,0.0,0.0,0.0,21.663500000000003,21.663500000000003,0.0,0.0,0.0,-0.0,-0.0
1762666370.9811502,0.0,0.0,1.075,0.0,0.0,1.5,0.0,0.0,0.0,0.0,0.0,0.0,0.0,0.0,0.0,0.0,0.0,0.0,0.0,0.0,43.327000000000005,0.0,0.0,43.327000000000005,0.0,0.0,0.0,21.663500000000003,21.663500000000003,0.0,0.0,0.0,21.663500000000003,21.663500000000003,0.0,0.0,0.0,-0.0,-0.0
1762666370.9827583,0.0,0.0,1.075,0.0,0.0,1.5,0.0,0.0,0.0,0.0,0.0,0.0,0.0,0.0,0.0,0.0,0.0,0.0,0.0,0.0,43.327000000000005,0.0,0.0,43.327000000000005,0.0,0.0,0.0,21.663500000000003,21.663500000000003,0.0,0.0,0.0,21.663500000000003,21.663500000000003,0.0,0.0,0.0,-0.0,-0.0
1762666370.984386,0.0,0.0,1.075,0.0,0.0,1.5,0.0,0.0,0.0,0.0,0.0,0.0,0.0,0.0,0.0,0.0,0.0,0.0,0.0,0.0,43.327000000000005,0.0,0.0,43.327000000000005,0.0,0.0,0.0,21.663500000000003,21.663500000000003,0.0,0.0,0.0,21.663500000000003,21.663500000000003,0.0,0.0,0.0,-0.0,-0.0
1762666370.9857094,0.0,0.0,1.075,0.0,0.0,1.5,0.0,0.0,0.0,0.0,0.0,0.0,0.0,0.0,0.0,0.0,0.0,0.0,0.0,0.0,43.327000000000005,0.0,0.0,43.327000000000005,0.0,0.0,0.0,21.663500000000003,21.663500000000003,0.0,0.0,0.0,21.663500000000003,21.663500000000003,0.0,0.0,0.0,-0.0,-0.0
1762666370.9871452,0.0,0.0,1.075,0.0,0.0,1.5,0.0,0.0,0.0,0.0,0.0,0.0,0.0,0.0,0.0,0.0,0.0,0.0,0.0,0.0,43.327000000000005,0.0,0.0,43.327000000000005,0.0,0.0,0.0,21.663500000000003,21.663500000000003,0.0,0.0,0.0,21.663500000000003,21.663500000000003,0.0,0.0,0.0,-0.0,-0.0
1762666370.9885674,0.0,0.0,1.075,0.0,0.0,1.5,0.0,0.0,0.0,0.0,0.0,0.0,0.0,0.0,0.0,0.0,0.0,0.0,0.0,0.0,43.327000000000005,0.0,0.0,43.327000000000005,0.0,0.0,0.0,21.663500000000003,21.663500000000003,0.0,0.0,0.0,21.663500000000003,21.663500000000003,0.0,0.0,0.0,-0.0,-0.0
1762666370.9901044,0.0,0.0,1.075,0.0,0.0,1.5,0.0,0.0,0.0,0.0,0.0,0.0,0.0,0.0,0.0,0.0,0.0,0.0,0.0,0.0,43.327000000000005,0.0,0.0,43.327000000000005,0.0,0.0,0.0,21.663500000000003,21.663500000000003,0.0,0.0,0.0,21.663500000000003,21.663500000000003,0.0,0.0,0.0,-0.0,-0.0
1762666370.991523,0.0,0.0,1.075,0.0,0.0,1.5,0.0,0.0,0.0,0.0,0.0,0.0,0.0,0.0,0.0,0.0,0.0,0.0,0.0,0.0,43.327000000000005,0.0,0.0,43.327000000000005,0.0,0.0,0.0,21.663500000000003,21.663500000000003,0.0,0.0,0.0,21.663500000000003,21.663500000000003,0.0,0.0,0.0,-0.0,-0.0
1762666370.9930303,0.0,0.0,1.075,0.0,0.0,1.5,0.0,0.0,0.0,0.0,0.0,0.0,0.0,0.0,0.0,0.0,0.0,0.0,0.0,0.0,43.327000000000005,0.0,0.0,43.327000000000005,0.0,0.0,0.0,21.663500000000003,21.663500000000003,0.0,0.0,0.0,21.663500000000003,21.663500000000003,0.0,0.0,0.0,-0.0,-0.0
1762666370.9944162,0.0,0.0,1.075,0.0,0.0,1.5,0.0,0.0,0.0,0.0,0.0,0.0,0.0,0.0,0.0,0.0,0.0,0.0,0.0,0.0,43.327000000000005,0.0,0.0,43.327000000000005,0.0,0.0,0.0,21.663500000000003,21.663500000000003,0.0,0.0,0.0,21.663500000000003,21.663500000000003,0.0,0.0,0.0,-0.0,-0.0
1762666370.9958293,0.0,0.0,1.075,0.0,0.0,1.5,0.0,0.0,0.0,0.0,0.0,0.0,0.0,0.0,0.0,0.0,0.0,0.0,0.0,0.0,43.327000000000005,0.0,0.0,43.327000000000005,0.0,0.0,0.0,21.663500000000003,21.663500000000003,0.0,0.0,0.0,21.663500000000003,21.663500000000003,0.0,0.0,0.0,-0.0,-0.0
1762666370.99729,0.0,0.0,1.075,0.0,0.0,1.5,0.0,0.0,0.0,0.0,0.0,0.0,0.0,0.0,0.0,0.0,0.0,0.0,0.0,0.0,43.327000000000005,0.0,0.0,43.327000000000005,0.0,0.0,0.0,21.663500000000003,21.663500000000003,0.0,0.0,0.0,21.663500000000003,21.663500000000003,0.0,0.0,0.0,-0.0,-0.0
1762666371.0015352,0.0,0.0,1.075,0.0,0.0,1.5,0.0,0.0,0.0,0.0,0.0,0.0,0.0,0.0,0.0,0.0,0.0,0.0,0.0,0.0,43.327000000000005,0.0,0.0,43.327000000000005,0.0,0.0,0.0,21.663500000000003,21.663500000000003,0.0,0.0,0.0,21.663500000000003,21.663500000000003,0.0,0.0,0.0,-0.0,-0.0
1762666371.0029998,0.0,0.0,1.075,0.0,0.0,1.5,0.0,0.0,0.0,0.0,0.0,0.0,0.0,0.0,0.0,0.0,0.0,0.0,0.0,0.0,43.327000000000005,0.0,0.0,43.327000000000005,0.0,0.0,0.0,21.663500000000003,21.663500000000003,0.0,0.0,0.0,21.663500000000003,21.663500000000003,0.0,0.0,0.0,-0.0,-0.0
1762666371.004513,0.0,0.0,1.075,0.0,0.0,1.5,0.0,0.0,0.0,0.0,0.0,0.0,0.0,0.0,0.0,0.0,0.0,0.0,0.0,0.0,43.327000000000005,0.0,0.0,43.327000000000005,0.0,0.0,0.0,21.663500000000003,21.663500000000003,0.0,0.0,0.0,21.663500000000003,21.663500000000003,0.0,0.0,0.0,-0.0,-0.0
1762666371.0061164,0.0,0.0,1.075,0.0,0.0,1.5,0.0,0.0,0.0,0.0,0.0,0.0,0.0,0.0,0.0,0.0,0.0,0.0,0.0,0.0,43.327000000000005,0.0,0.0,43.327000000000005,0.0,0.0,0.0,21.663500000000003,21.663500000000003,0.0,0.0,0.0,21.663500000000003,21.663500000000003,0.0,0.0,0.0,-0.0,-0.0
1762666371.0076272,0.0,0.0,1.075,0.0,0.0,1.5,0.0,0.0,0.0,0.0,0.0,0.0,0.0,0.0,0.0,0.0,0.0,0.0,0.0,0.0,43.327000000000005,0.0,0.0,43.327000000000005,0.0,0.0,0.0,21.663500000000003,21.663500000000003,0.0,0.0,0.0,21.663500000000003,21.663500000000003,0.0,0.0,0.0,-0.0,-0.0
1762666371.0091186,0.0,0.0,1.075,0.0,0.0,1.5,0.0,0.0,0.0,0.0,0.0,0.0,0.0,0.0,0.0,0.0,0.0,0.0,0.0,0.0,43.327000000000005,0.0,0.0,43.327000000000005,0.0,0.0,0.0,21.663500000000003,21.663500000000003,0.0,0.0,0.0,21.663500000000003,21.663500000000003,0.0,0.0,0.0,-0.0,-0.0
1762666371.0103745,0.0,0.0,1.075,0.0,0.0,1.5,0.0,0.0,0.0,0.0,0.0,0.0,0.0,0.0,0.0,0.0,0.0,0.0,0.0,0.0,43.327000000000005,0.0,0.0,43.327000000000005,0.0,0.0,0.0,21.663500000000003,21.663500000000003,0.0,0.0,0.0,21.663500000000003,21.663500000000003,0.0,0.0,0.0,-0.0,-0.0
1762666371.011655,0.0,0.0,1.075,0.0,0.0,1.5,0.0,0.0,0.0,0.0,0.0,0.0,0.0,0.0,0.0,0.0,0.0,0.0,0.0,0.0,43.327000000000005,0.0,0.0,43.327000000000005,0.0,0.0,0.0,21.663500000000003,21.663500000000003,0.0,0.0,0.0,21.663500000000003,21.663500000000003,0.0,0.0,0.0,-0.0,-0.0
1762666371.0131474,0.0,0.0,1.075,0.0,0.0,1.5,0.0,0.0,0.0,0.0,0.0,0.0,0.0,0.0,0.0,0.0,0.0,0.0,0.0,0.0,43.327000000000005,0.0,0.0,43.327000000000005,0.0,0.0,0.0,21.663500000000003,21.663500000000003,0.0,0.0,0.0,21.663500000000003,21.663500000000003,0.0,0.0,0.0,-0.0,-0.0
1762666371.014774,0.0,0.0,1.075,0.0,0.0,1.5,0.0,0.0,0.0,0.0,0.0,0.0,0.0,0.0,0.0,0.0,0.0,0.0,0.0,0.0,43.327000000000005,0.0,0.0,43.327000000000005,0.0,0.0,0.0,21.663500000000003,21.663500000000003,0.0,0.0,0.0,21.663500000000003,21.663500000000003,0.0,0.0,0.0,-0.0,-0.0
1762666371.0164368,0.0,0.0,1.075,0.0,0.0,1.5,0.0,0.0,0.0,0.0,0.0,0.0,0.0,0.0,0.0,0.0,0.0,0.0,0.0,0.0,43.327000000000005,0.0,0.0,43.327000000000005,0.0,0.0,0.0,21.663500000000003,21.663500000000003,0.0,0.0,0.0,21.663500000000003,21.663500000000003,0.0,0.0,0.0,-0.0,-0.0
1762666371.0178936,0.0,0.0,1.075,0.0,0.0,1.5,0.0,0.0,0.0,0.0,0.0,0.0,0.0,0.0,0.0,0.0,0.0,0.0,0.0,0.0,43.327000000000005,0.0,0.0,43.327000000000005,0.0,0.0,0.0,21.663500000000003,21.663500000000003,0.0,0.0,0.0,21.663500000000003,21.663500000000003,0.0,0.0,0.0,-0.0,-0.0
1762666371.0191655,0.0,0.0,1.075,0.0,0.0,1.5,0.0,0.0,0.0,0.0,0.0,0.0,0.0,0.0,0.0,0.0,0.0,0.0,0.0,0.0,43.327000000000005,0.0,0.0,43.327000000000005,0.0,0.0,0.0,21.663500000000003,21.663500000000003,0.0,0.0,0.0,21.663500000000003,21.663500000000003,0.0,0.0,0.0,-0.0,-0.0
1762666371.0205667,0.0,0.0,1.075,0.0,0.0,1.5,0.0,0.0,0.0,0.0,0.0,0.0,0.0,0.0,0.0,0.0,0.0,0.0,0.0,0.0,43.327000000000005,0.0,0.0,43.327000000000005,0.0,0.0,0.0,21.663500000000003,21.663500000000003,0.0,0.0,0.0,21.663500000000003,21.663500000000003,0.0,0.0,0.0,-0.0,-0.0
1762666371.0220952,0.0,0.0,1.075,0.0,0.0,1.5,0.0,0.0,0.0,0.0,0.0,0.0,0.0,0.0,0.0,0.0,0.0,0.0,0.0,0.0,43.327000000000005,0.0,0.0,43.327000000000005,0.0,0.0,0.0,21.663500000000003,21.663500000000003,0.0,0.0,0.0,21.663500000000003,21.663500000000003,0.0,0.0,0.0,-0.0,-0.0
1762666371.0237193,0.0,0.0,1.075,0.0,0.0,1.5,0.0,0.0,0.0,0.0,0.0,0.0,0.0,0.0,0.0,0.0,0.0,0.0,0.0,0.0,43.327000000000005,0.0,0.0,43.327000000000005,0.0,0.0,0.0,21.663500000000003,21.663500000000003,0.0,0.0,0.0,21.663500000000003,21.663500000000003,0.0,0.0,0.0,-0.0,-0.0
1762666371.0252502,0.0,0.0,1.075,0.0,0.0,1.5,0.0,0.0,0.0,0.0,0.0,0.0,0.0,0.0,0.0,0.0,0.0,0.0,0.0,0.0,43.327000000000005,0.0,0.0,43.327000000000005,0.0,0.0,0.0,21.663500000000003,21.663500000000003,0.0,0.0,0.0,21.663500000000003,21.663500000000003,0.0,0.0,0.0,-0.0,-0.0
1762666371.0265844,0.0,0.0,1.075,0.0,0.0,1.5,0.0,0.0,0.0,0.0,0.0,0.0,0.0,0.0,0.0,0.0,0.0,0.0,0.0,0.0,43.327000000000005,0.0,0.0,43.327000000000005,0.0,0.0,0.0,21.663500000000003,21.663500000000003,0.0,0.0,0.0,21.663500000000003,21.663500000000003,0.0,0.0,0.0,-0.0,-0.0
1762666371.0279593,0.0,0.0,1.075,0.0,0.0,1.5,0.0,0.0,0.0,0.0,0.0,0.0,0.0,0.0,0.0,0.0,0.0,0.0,0.0,0.0,43.327000000000005,0.0,0.0,43.327000000000005,0.0,0.0,0.0,21.663500000000003,21.663500000000003,0.0,0.0,0.0,21.663500000000003,21.663500000000003,0.0,0.0,0.0,-0.0,-0.0
1762666371.0293949,0.0,0.0,1.075,0.0,0.0,1.5,0.0,0.0,0.0,0.0,0.0,0.0,0.0,0.0,0.0,0.0,0.0,0.0,0.0,0.0,43.327000000000005,0.0,0.0,43.327000000000005,0.0,0.0,0.0,21.663500000000003,21.663500000000003,0.0,0.0,0.0,21.663500000000003,21.663500000000003,0.0,0.0,0.0,-0.0,-0.0
1762666371.0310147,2.1343431788084525e-27,0.0,1.0750002529761904,0.0,0.0,1.5,8.964241350995493e-25,0.0,0.0,-1.5459871024766561e-27,-4.623430525837242e-27,0.0005059523809523809,-5.421651080491999e-28,-1.792825148986733e-21,-2.6640317959713467e-42,0.0,0.0,0.0,0.0,0.0,43.327000000000005,0.0,0.0,43.327000000000005,0.0,0.0,0.0,21.663500000000003,21.663500000000003,0.0,0.0,0.0,21.663500000000003,21.663500000000003,0.0,0.0,0.0,-0.0,-0.0
1762666371.03259,2.1343431788084525e-27,0.0,1.0750002529761904,0.0,0.0,1.5,8.964241350995493e-25,0.0,0.0,-1.5459871024766561e-27,-4.623430525837242e-27,0.0005059523809523809,-5.421651080491999e-28,-1.792825148986733e-21,-2.6640317959713467e-42,0.0,0.0,0.0,4.788155130724299e-27,4.6234305258373045e-26,43.321939211309534,4.788155130724299e-27,3.8881066193591773e-23,43.321939211309534,-4.481849592943722e-25,8.964125744933667e-23,1.3320162867885697e-43,21.660969605654767,21.660969605654767,1.4940209574889444e-22,1.105249492034353e-28,1.105249492034353e-28,21.660969605654767,21.660969605654767,1.4940209574889444e-22,1.105249492034353e-28,1.105249492034353e-28,-8.974913612233121e-25,-8.974913612233121e-25
1762666371.0340867,2.1343431788084525e-27,0.0,1.0750002529761904,0.0,0.0,1.5,8.964241350995493e-25,0.0,0.0,-1.5459871024766561e-27,-4.623430525837242e-27,0.0005059523809523809,-5.421651080491999e-28,-1.792825148986733e-21,-2.6640317959713467e-42,0.0,0.0,0.0,4.788155130724299e-27,4.6234305258373045e-26,43.321939211309534,4.788155130724299e-27,3.8881066193591773e-23,43.321939211309534,-4.481849592943722e-25,8.964125744933667e-23,1.3320162867885697e-43,21.660969605654767,21.660969605654767,1.4940209574889444e-22,1.105249492034353e-28,1.105249492034353e-28,21.660969605654767,21.660969605654767,1.4940209574889444e-22,1.105249492034353e-28,1.105249492034353e-28,-8.974913612233121e-25,-8.974913612233121e-25
1762666371.0353963,2.1343431788084525e-27,0.0,1.0750002529761904,0.0,0.0,1.5,8.964241350995493e-25,0.0,0.0,-1.5459871024766561e-27,-4.623430525837242e-27,0.0005059523809523809,-5.421651080491999e-28,-1.792825148986733e-21,-2.6640317959713467e-42,0.0,0.0,0.0,4.788155130724299e-27,4.6234305258373045e-26,43.321939211309534,4.788155130724299e-27,3.8881066193591773e-23,43.321939211309534,-4.481849592943722e-25,8.964125744933667e-23,1.3320162867885697e-43,21.660969605654767,21.660969605654767,1.4940209574889444e-22,1.105249492034353e-28,1.105249492034353e-28,21.660969605654767,21.660969605654767,1.4940209574889444e-22,1.105249492034353e-28,1.105249492034353e-28,-8.974913612233121e-25,-8.974913612233121e-25
1762666371.03667,2.1343431788084525e-27,0.0,1.0750002529761904,0.0,0.0,1.5,8.964241350995493e-25,0.0,0.0,-1.5459871024766561e-27,-4.623430525837242e-27,0.0005059523809523809,-5.421651080491999e-28,-1.792825148986733e-21,-2.6640317959713467e-42,0.0,0.0,0.0,4.788155130724299e-27,4.6234305258373045e-26,43.321939211309534,4.788155130724299e-27,3.8881066193591773e-23,43.321939211309534,-4.481849592943722e-25,8.964125744933667e-23,1.3320162867885697e-43,21.660969605654767,21.660969605654767,1.4940209574889444e-22,1.105249492034353e-28,1.105249492034353e-28,21.660969605654767,21.660969605654767,1.4940209574889444e-22,1.105249492034353e-28,1.105249492034353e-28,-8.974913612233121e-25,-8.974913612233121e-25
1762666371.0382736,2.1343431788084525e-27,0.0,1.0750002529761904,0.0,0.0,1.5,8.964241350995493e-25,0.0,0.0,-1.5459871024766561e-27,-4.623430525837242e-27,0.0005059523809523809,-5.421651080491999e-28,-1.792825148986733e-21,-2.6640317959713467e-42,0.0,0.0,0.0,4.788155130724299e-27,4.6234305258373045e-26,43.321939211309534,4.788155130724299e-27,3.8881066193591773e-23,43.321939211309534,-4.481849592943722e-25,8.964125744933667e-23,1.3320162867885697e-43,21.660969605654767,21.660969605654767,1.4940209574889444e-22,1.105249492034353e-28,1.105249492034353e-28,21.660969605654767,21.660969605654767,1.4940209574889444e-22,1.105249492034353e-28,1.105249492034353e-28,-8.974913612233121e-25,-8.974913612233121e-25
1762666371.0400062,2.1343431788084525e-27,0.0,1.0750002529761904,0.0,0.0,1.5,8.964241350995493e-25,0.0,0.0,-1.5459871024766561e-27,-4.623430525837242e-27,0.0005059523809523809,-5.421651080491999e-28,-1.792825148986733e-21,-2.6640317959713467e-42,0.0,0.0,0.0,4.788155130724299e-27,4.6234305258373045e-26,43.321939211309534,4.788155130724299e-27,3.8881066193591773e-23,43.321939211309534,-4.481849592943722e-25,8.964125744933667e-23,1.3320162867885697e-43,21.660969605654767,21.660969605654767,1.4940209574889444e-22,1.105249492034353e-28,1.105249492034353e-28,21.660969605654767,21.660969605654767,1.4940209574889444e-22,1.105249492034353e-28,1.105249492034353e-28,-8.974913612233121e-25,-8.974913612233121e-25
1762666371.0415318,2.1343431788084525e-27,0.0,1.0750002529761904,0.0,0.0,1.5,8.964241350995493e-25,0.0,0.0,-1.5459871024766561e-27,-4.623430525837242e-27,0.0005059523809523809,-5.421651080491999e-28,-1.792825148986733e-21,-2.6640317959713467e-42,0.0,0.0,0.0,4.788155130724299e-27,4.6234305258373045e-26,43.321939211309534,4.788155130724299e-27,3.8881066193591773e-23,43.321939211309534,-4.481849592943722e-25,8.964125744933667e-23,1.3320162867885697e-43,21.660969605654767,21.660969605654767,1.4940209574889444e-22,1.105249492034353e-28,1.105249492034353e-28,21.660969605654767,21.660969605654767,1.4940209574889444e-22,1.105249492034353e-28,1.105249492034353e-28,-8.974913612233121e-25,-8.974913612233121e-25
1762666371.0429847,2.1343431788084525e-27,0.0,1.0750002529761904,0.0,0.0,1.5,8.964241350995493e-25,0.0,0.0,-1.5459871024766561e-27,-4.623430525837242e-27,0.0005059523809523809,-5.421651080491999e-28,-1.792825148986733e-21,-2.6640317959713467e-42,0.0,0.0,0.0,4.788155130724299e-27,4.6234305258373045e-26,43.321939211309534,4.788155130724299e-27,3.8881066193591773e-23,43.321939211309534,-4.481849592943722e-25,8.964125744933667e-23,1.3320162867885697e-43,21.660969605654767,21.660969605654767,1.4940209574889444e-22,1.105249492034353e-28,1.105249492034353e-28,21.660969605654767,21.660969605654767,1.4940209574889444e-22,1.105249492034353e-28,1.105249492034353e-28,-8.974913612233121e-25,-8.974913612233121e-25
1762666371.04432,2.1343431788084525e-27,0.0,1.0750002529761904,0.0,0.0,1.5,8.964241350995493e-25,0.0,0.0,-1.5459871024766561e-27,-4.623430525837242e-27,0.0005059523809523809,-5.421651080491999e-28,-1.792825148986733e-21,-2.6640317959713467e-42,0.0,0.0,0.0,4.788155130724299e-27,4.6234305258373045e-26,43.321939211309534,4.788155130724299e-27,3.8881066193591773e-23,43.321939211309534,-4.481849592943722e-25,8.964125744933667e-23,1.3320162867885697e-43,21.660969605654767,21.660969605654767,1.4940209574889444e-22,1.105249492034353e-28,1.105249492034353e-28,21.660969605654767,21.660969605654767,1.4940209574889444e-22,1.105249492034353e-28,1.105249492034353e-28,-8.974913612233121e-25,-8.974913612233121e-25
1762666371.0457416,2.1343431788084525e-27,0.0,1.0750002529761904,0.0,0.0,1.5,8.964241350995493e-25,0.0,0.0,-1.5459871024766561e-27,-4.623430525837242e-27,0.0005059523809523809,-5.421651080491999e-28,-1.792825148986733e-21,-2.6640317959713467e-42,0.0,0.0,0.0,4.788155130724299e-27,4.6234305258373045e-26,43.321939211309534,4.788155130724299e-27,3.8881066193591773e-23,43.321939211309534,-4.481849592943722e-25,8.964125744933667e-23,1.3320162867885697e-43,21.660969605654767,21.660969605654767,1.4940209574889444e-22,1.105249492034353e-28,1.105249492034353e-28,21.660969605654767,21.660969605654767,1.4940209574889444e-22,1.105249492034353e-28,1.105249492034353e-28,-8.974913612233121e-25,-8.974913612233121e-25
1762666371.0473,2.1343431788084525e-27,0.0,1.0750002529761904,0.0,0.0,1.5,8.964241350995493e-25,0.0,0.0,-1.5459871024766561e-27,-4.623430525837242e-27,0.0005059523809523809,-5.421651080491999e-28,-1.792825148986733e-21,-2.6640317959713467e-42,0.0,0.0,0.0,4.788155130724299e-27,4.6234305258373045e-26,43.321939211309534,4.788155130724299e-27,3.8881066193591773e-23,43.321939211309534,-4.481849592943722e-25,8.964125744933667e-23,1.3320162867885697e-43,21.660969605654767,21.660969605654767,1.4940209574889444e-22,1.105249492034353e-28,1.105249492034353e-28,21.660969605654767,21.660969605654767,1.4940209574889444e-22,1.105249492034353e-28,1.105249492034353e-28,-8.974913612233121e-25,-8.974913612233121e-25
1762666371.0489535,2.1343431788084525e-27,0.0,1.0750002529761904,0.0,0.0,1.5,8.964241350995493e-25,0.0,0.0,-1.5459871024766561e-27,-4.623430525837242e-27,0.0005059523809523809,-5.421651080491999e-28,-1.792825148986733e-21,-2.6640317959713467e-42,0.0,0.0,0.0,4.788155130724299e-27,4.6234305258373045e-26,43.321939211309534,4.788155130724299e-27,3.8881066193591773e-23,43.321939211309534,-4.481849592943722e-25,8.964125744933667e-23,1.3320162867885697e-43,21.660969605654767,21.660969605654767,1.4940209574889444e-22,1.105249492034353e-28,1.105249492034353e-28,21.660969605654767,21.660969605654767,1.4940209574889444e-22,1.105249492034353e-28,1.105249492034353e-28,-8.974913612233121e-25,-8.974913612233121e-25
1762666371.0505362,2.1343431788084525e-27,0.0,1.0750002529761904,0.0,0.0,1.5,8.964241350995493e-25,0.0,0.0,-1.5459871024766561e-27,-4.623430525837242e-27,0.0005059523809523809,-5.421651080491999e-28,-1.792825148986733e-21,-2.6640317959713467e-42,0.0,0.0,0.0,4.788155130724299e-27,4.6234305258373045e-26,43.321939211309534,4.788155130724299e-27,3.8881066193591773e-23,43.321939211309534,-4.481849592943722e-25,8.964125744933667e-23,1.3320162867885697e-43,21.660969605654767,21.660969605654767,1.4940209574889444e-22,1.105249492034353e-28,1.105249492034353e-28,21.660969605654767,21.660969605654767,1.4940209574889444e-22,1.105249492034353e-28,1.105249492034353e-28,-8.974913612233121e-25,-8.974913612233121e-25
1762666371.052026,2.1343431788084525e-27,0.0,1.0750002529761904,0.0,0.0,1.5,8.964241350995493e-25,0.0,0.0,-1.5459871024766561e-27,-4.623430525837242e-27,0.0005059523809523809,-5.421651080491999e-28,-1.792825148986733e-21,-2.6640317959713467e-42,0.0,0.0,0.0,4.788155130724299e-27,4.6234305258373045e-26,43.321939211309534,4.788155130724299e-27,3.8881066193591773e-23,43.321939211309534,-4.481849592943722e-25,8.964125744933667e-23,1.3320162867885697e-43,21.660969605654767,21.660969605654767,1.4940209574889444e-22,1.105249492034353e-28,1.105249492034353e-28,21.660969605654767,21.660969605654767,1.4940209574889444e-22,1.105249492034353e-28,1.105249492034353e-28,-8.974913612233121e-25,-8.974913612233121e-25
1762666371.0534124,2.1343431788084525e-27,0.0,1.0750002529761904,0.0,0.0,1.5,8.964241350995493e-25,0.0,0.0,-1.5459871024766561e-27,-4.623430525837242e-27,0.0005059523809523809,-5.421651080491999e-28,-1.792825148986733e-21,-2.6640317959713467e-42,0.0,0.0,0.0,4.788155130724299e-27,4.6234305258373045e-26,43.321939211309534,4.788155130724299e-27,3.8881066193591773e-23,43.321939211309534,-4.481849592943722e-25,8.964125744933667e-23,1.3320162867885697e-43,21.660969605654767,21.660969605654767,1.4940209574889444e-22,1.105249492034353e-28,1.105249492034353e-28,21.660969605654767,21.660969605654767,1.4940209574889444e-22,1.105249492034353e-28,1.105249492034353e-28,-8.974913612233121e-25,-8.974913612233121e-25
1762666371.0547924,2.1343431788084525e-27,0.0,1.0750002529761904,0.0,0.0,1.5,8.964241350995493e-25,0.0,0.0,-1.5459871024766561e-27,-4.623430525837242e-27,0.0005059523809523809,-5.421651080491999e-28,-1.792825148986733e-21,-2.6640317959713467e-42,0.0,0.0,0.0,4.788155130724299e-27,4.6234305258373045e-26,43.321939211309534,4.788155130724299e-27,3.8881066193591773e-23,43.321939211309534,-4.481849592943722e-25,8.964125744933667e-23,1.3320162867885697e-43,21.660969605654767,21.660969605654767,1.4940209574889444e-22,1.105249492034353e-28,1.105249492034353e-28,21.660969605654767,21.660969605654767,1.4940209574889444e-22,1.105249492034353e-28,1.105249492034353e-28,-8.974913612233121e-25,-8.974913612233121e-25
1762666371.0562706,2.1343431788084525e-27,0.0,1.0750002529761904,0.0,0.0,1.5,8.964241350995493e-25,0.0,0.0,-1.5459871024766561e-27,-4.623430525837242e-27,0.0005059523809523809,-5.421651080491999e-28,-1.792825148986733e-21,-2.6640317959713467e-42,0.0,0.0,0.0,4.788155130724299e-27,4.6234305258373045e-26,43.321939211309534,4.788155130724299e-27,3.8881066193591773e-23,43.321939211309534,-4.481849592943722e-25,8.964125744933667e-23,1.3320162867885697e-43,21.660969605654767,21.660969605654767,1.4940209574889444e-22,1.105249492034353e-28,1.105249492034353e-28,21.660969605654767,21.660969605654767,1.4940209574889444e-22,1.105249492034353e-28,1.105249492034353e-28,-8.974913612233121e-25,-8.974913612233121e-25
1762666371.0576737,2.1343431788084525e-27,0.0,1.0750002529761904,0.0,0.0,1.5,8.964241350995493e-25,0.0,0.0,-1.5459871024766561e-27,-4.623430525837242e-27,0.0005059523809523809,-5.421651080491999e-28,-1.792825148986733e-21,-2.6640317959713467e-42,0.0,0.0,0.0,4.788155130724299e-27,4.6234305258373045e-26,43.321939211309534,4.788155130724299e-27,3.8881066193591773e-23,43.321939211309534,-4.481849592943722e-25,8.964125744933667e-23,1.3320162867885697e-43,21.660969605654767,21.660969605654767,1.4940209574889444e-22,1.105249492034353e-28,1.105249492034353e-28,21.660969605654767,21.660969605654767,1.4940209574889444e-22,1.105249492034353e-28,1.105249492034353e-28,-8.974913612233121e-25,-8.974913612233121e-25
1762666371.0592036,2.1343431788084525e-27,0.0,1.0750002529761904,0.0,0.0,1.5,8.964241350995493e-25,0.0,0.0,-1.5459871024766561e-27,-4.623430525837242e-27,0.0005059523809523809,-5.421651080491999e-28,-1.792825148986733e-21,-2.6640317959713467e-42,0.0,0.0,0.0,4.788155130724299e-27,4.6234305258373045e-26,43.321939211309534,4.788155130724299e-27,3.8881066193591773e-23,43.321939211309534,-4.481849592943722e-25,8.964125744933667e-23,1.3320162867885697e-43,21.660969605654767,21.660969605654767,1.4940209574889444e-22,1.105249492034353e-28,1.105249492034353e-28,21.660969605654767,21.660969605654767,1.4940209574889444e-22,1.105249492034353e-28,1.105249492034353e-28,-8.974913612233121e-25,-8.974913612233121e-25
1762666371.0604978,2.1343431788084525e-27,0.0,1.0750002529761904,0.0,0.0,1.5,8.964241350995493e-25,0.0,0.0,-1.5459871024766561e-27,-4.623430525837242e-27,0.0005059523809523809,-5.421651080491999e-28,-1.792825148986733e-21,-2.6640317959713467e-42,0.0,0.0,0.0,4.788155130724299e-27,4.6234305258373045e-26,43.321939211309534,4.788155130724299e-27,3.8881066193591773e-23,43.321939211309534,-4.481849592943722e-25,8.964125744933667e-23,1.3320162867885697e-43,21.660969605654767,21.660969605654767,1.4940209574889444e-22,1.105249492034353e-28,1.105249492034353e-28,21.660969605654767,21.660969605654767,1.4940209574889444e-22,1.105249492034353e-28,1.105249492034353e-28,-8.974913612233121e-25,-8.974913612233121e-25
1762666371.0618992,2.1343431788084525e-27,0.0,1.0750002529761904,0.0,0.0,1.5,8.964241350995493e-25,0.0,0.0,-1.5459871024766561e-27,-4.623430525837242e-27,0.0005059523809523809,-5.421651080491999e-28,-1.792825148986733e-21,-2.6640317959713467e-42,0.0,0.0,0.0,4.788155130724299e-27,4.6234305258373045e-26,43.321939211309534,4.788155130724299e-27,3.8881066193591773e-23,43.321939211309534,-4.481849592943722e-25,8.964125744933667e-23,1.3320162867885697e-43,21.660969605654767,21.660969605654767,1.4940209574889444e-22,1.105249492034353e-28,1.105249492034353e-28,21.660969605654767,21.660969605654767,1.4940209574889444e-22,1.105249492034353e-28,1.105249492034353e-28,-8.974913612233121e-25,-8.974913612233121e-25
1762666371.0634947,2.1343431788084525e-27,0.0,1.0750002529761904,0.0,0.0,1.5,8.964241350995493e-25,0.0,0.0,-1.5459871024766561e-27,-4.623430525837242e-27,0.0005059523809523809,-5.421651080491999e-28,-1.792825148986733e-21,-2.6640317959713467e-42,0.0,0.0,0.0,4.788155130724299e-27,4.6234305258373045e-26,43.321939211309534,4.788155130724299e-27,3.8881066193591773e-23,43.321939211309534,-4.481849592943722e-25,8.964125744933667e-23,1.3320162867885697e-43,21.660969605654767,21.660969605654767,1.4940209574889444e-22,1.105249492034353e-28,1.105249492034353e-28,21.660969605654767,21.660969605654767,1.4940209574889444e-22,1.105249492034353e-28,1.105249492034353e-28,-8.974913612233121e-25,-8.974913612233121e-25
1762666371.0650024,2.1343431788084525e-27,0.0,1.0750002529761904,0.0,0.0,1.5,8.964241350995493e-25,0.0,0.0,-1.5459871024766561e-27,-4.623430525837242e-27,0.0005059523809523809,-5.421651080491999e-28,-1.792825148986733e-21,-2.6640317959713467e-42,0.0,0.0,0.0,4.788155130724299e-27,4.6234305258373045e-26,43.321939211309534,4.788155130724299e-27,3.8881066193591773e-23,43.321939211309534,-4.481849592943722e-25,8.964125744933667e-23,1.3320162867885697e-43,21.660969605654767,21.660969605654767,1.4940209574889444e-22,1.105249492034353e-28,1.105249492034353e-28,21.660969605654767,21.660969605654767,1.4940209574889444e-22,1.105249492034353e-28,1.105249492034353e-28,-8.974913612233121e-25,-8.974913612233121e-25
1762666371.0666265,2.1343431788084525e-27,0.0,1.0750002529761904,0.0,0.0,1.5,8.964241350995493e-25,0.0,0.0,-1.5459871024766561e-27,-4.623430525837242e-27,0.0005059523809523809,-5.421651080491999e-28,-1.792825148986733e-21,-2.6640317959713467e-42,0.0,0.0,0.0,4.788155130724299e-27,4.6234305258373045e-26,43.321939211309534,4.788155130724299e-27,3.8881066193591773e-23,43.321939211309534,-4.481849592943722e-25,8.964125744933667e-23,1.3320162867885697e-43,21.660969605654767,21.660969605654767,1.4940209574889444e-22,1.105249492034353e-28,1.105249492034353e-28,21.660969605654767,21.660969605654767,1.4940209574889444e-22,1.105249492034353e-28,1.105249492034353e-28,-8.974913612233121e-25,-8.974913612233121e-25
1762666371.0680397,2.1343431788084525e-27,0.0,1.0750002529761904,0.0,0.0,1.5,8.964241350995493e-25,0.0,0.0,-1.5459871024766561e-27,-4.623430525837242e-27,0.0005059523809523809,-5.421651080491999e-28,-1.792825148986733e-21,-2.6640317959713467e-42,0.0,0.0,0.0,4.788155130724299e-27,4.6234305258373045e-26,43.321939211309534,4.788155130724299e-27,3.8881066193591773e-23,43.321939211309534,-4.481849592943722e-25,8.964125744933667e-23,1.3320162867885697e-43,21.660969605654767,21.660969605654767,1.4940209574889444e-22,1.105249492034353e-28,1.105249492034353e-28,21.660969605654767,21.660969605654767,1.4940209574889444e-22,1.105249492034353e-28,1.105249492034353e-28,-8.974913612233121e-25,-8.974913612233121e-25
1762666371.0693867,2.1343431788084525e-27,0.0,1.0750002529761904,0.0,0.0,1.5,8.964241350995493e-25,0.0,0.0,-1.5459871024766561e-27,-4.623430525837242e-27,0.0005059523809523809,-5.421651080491999e-28,-1.792825148986733e-21,-2.6640317959713467e-42,0.0,0.0,0.0,4.788155130724299e-27,4.6234305258373045e-26,43.321939211309534,4.788155130724299e-27,3.8881066193591773e-23,43.321939211309534,-4.481849592943722e-25,8.964125744933667e-23,1.3320162867885697e-43,21.660969605654767,21.660969605654767,1.4940209574889444e-22,1.105249492034353e-28,1.105249492034353e-28,21.660969605654767,21.660969605654767,1.4940209574889444e-22,1.105249492034353e-28,1.105249492034353e-28,-8.974913612233121e-25,-8.974913612233121e-25
1762666371.0707507,2.1343431788084525e-27,0.0,1.0750002529761904,0.0,0.0,1.5,8.964241350995493e-25,0.0,0.0,-1.5459871024766561e-27,-4.623430525837242e-27,0.0005059523809523809,-5.421651080491999e-28,-1.792825148986733e-21,-2.6640317959713467e-42,0.0,0.0,0.0,4.788155130724299e-27,4.6234305258373045e-26,43.321939211309534,4.788155130724299e-27,3.8881066193591773e-23,43.321939211309534,-4.481849592943722e-25,8.964125744933667e-23,1.3320162867885697e-43,21.660969605654767,21.660969605654767,1.4940209574889444e-22,1.105249492034353e-28,1.105249492034353e-28,21.660969605654767,21.660969605654767,1.4940209574889444e-22,1.105249492034353e-28,1.105249492034353e-28,-8.974913612233121e-25,-8.974913612233121e-25
1762666371.072429,2.1343431788084525e-27,0.0,1.0750002529761904,0.0,0.0,1.5,8.964241350995493e-25,0.0,0.0,-1.5459871024766561e-27,-4.623430525837242e-27,0.0005059523809523809,-5.421651080491999e-28,-1.792825148986733e-21,-2.6640317959713467e-42,0.0,0.0,0.0,4.788155130724299e-27,4.6234305258373045e-26,43.321939211309534,4.788155130724299e-27,3.8881066193591773e-23,43.321939211309534,-4.481849592943722e-25,8.964125744933667e-23,1.3320162867885697e-43,21.660969605654767,21.660969605654767,1.4940209574889444e-22,1.105249492034353e-28,1.105249492034353e-28,21.660969605654767,21.660969605654767,1.4940209574889444e-22,1.105249492034353e-28,1.105249492034353e-28,-8.974913612233121e-25,-8.974913612233121e-25
1762666371.0740173,2.1343431788084525e-27,0.0,1.0750002529761904,0.0,0.0,1.5,8.964241350995493e-25,0.0,0.0,-1.5459871024766561e-27,-4.623430525837242e-27,0.0005059523809523809,-5.421651080491999e-28,-1.792825148986733e-21,-2.6640317959713467e-42,0.0,0.0,0.0,4.788155130724299e-27,4.6234305258373045e-26,43.321939211309534,4.788155130724299e-27,3.8881066193591773e-23,43.321939211309534,-4.481849592943722e-25,8.964125744933667e-23,1.3320162867885697e-43,21.660969605654767,21.660969605654767,1.4940209574889444e-22,1.105249492034353e-28,1.105249492034353e-28,21.660969605654767,21.660969605654767,1.4940209574889444e-22,1.105249492034353e-28,1.105249492034353e-28,-8.974913612233121e-25,-8.974913612233121e-25
1762666371.0754616,2.1343431788084525e-27,0.0,1.0750002529761904,0.0,0.0,1.5,8.964241350995493e-25,0.0,0.0,-1.5459871024766561e-27,-4.623430525837242e-27,0.0005059523809523809,-5.421651080491999e-28,-1.792825148986733e-21,-2.6640317959713467e-42,0.0,0.0,0.0,4.788155130724299e-27,4.6234305258373045e-26,43.321939211309534,4.788155130724299e-27,3.8881066193591773e-23,43.321939211309534,-4.481849592943722e-25,8.964125744933667e-23,1.3320162867885697e-43,21.660969605654767,21.660969605654767,1.4940209574889444e-22,1.105249492034353e-28,1.105249492034353e-28,21.660969605654767,21.660969605654767,1.4940209574889444e-22,1.105249492034353e-28,1.105249492034353e-28,-8.974913612233121e-25,-8.974913612233121e-25
1762666371.0767987,2.1343431788084525e-27,0.0,1.0750002529761904,0.0,0.0,1.5,8.964241350995493e-25,0.0,0.0,-1.5459871024766561e-27,-4.623430525837242e-27,0.0005059523809523809,-5.421651080491999e-28,-1.792825148986733e-21,-2.6640317959713467e-42,0.0,0.0,0.0,4.788155130724299e-27,4.6234305258373045e-26,43.321939211309534,4.788155130724299e-27,3.8881066193591773e-23,43.321939211309534,-4.481849592943722e-25,8.964125744933667e-23,1.3320162867885697e-43,21.660969605654767,21.660969605654767,1.4940209574889444e-22,1.105249492034353e-28,1.105249492034353e-28,21.660969605654767,21.660969605654767,1.4940209574889444e-22,1.105249492034353e-28,1.105249492034353e-28,-8.974913612233121e-25,-8.974913612233121e-25
1762666371.078101,2.1343431788084525e-27,0.0,1.0750002529761904,0.0,0.0,1.5,8.964241350995493e-25,0.0,0.0,-1.5459871024766561e-27,-4.623430525837242e-27,0.0005059523809523809,-5.421651080491999e-28,-1.792825148986733e-21,-2.6640317959713467e-42,0.0,0.0,0.0,4.788155130724299e-27,4.6234305258373045e-26,43.321939211309534,4.788155130724299e-27,3.8881066193591773e-23,43.321939211309534,-4.481849592943722e-25,8.964125744933667e-23,1.3320162867885697e-43,21.660969605654767,21.660969605654767,1.4940209574889444e-22,1.105249492034353e-28,1.105249492034353e-28,21.660969605654767,21.660969605654767,1.4940209574889444e-22,1.105249492034353e-28,1.105249492034353e-28,-8.974913612233121e-25,-8.974913612233121e-25
1762666371.0795412,2.1343431788084525e-27,0.0,1.0750002529761904,0.0,0.0,1.5,8.964241350995493e-25,0.0,0.0,-1.5459871024766561e-27,-4.623430525837242e-27,0.0005059523809523809,-5.421651080491999e-28,-1.792825148986733e-21,-2.6640317959713467e-42,0.0,0.0,0.0,4.788155130724299e-27,4.6234305258373045e-26,43.321939211309534,4.788155130724299e-27,3.8881066193591773e-23,43.321939211309534,-4.481849592943722e-25,8.964125744933667e-23,1.3320162867885697e-43,21.660969605654767,21.660969605654767,1.4940209574889444e-22,1.105249492034353e-28,1.105249492034353e-28,21.660969605654767,21.660969605654767,1.4940209574889444e-22,1.105249492034353e-28,1.105249492034353e-28,-8.974913612233121e-25,-8.974913612233121e-25
1762666371.081094,2.1343431788084525e-27,0.0,1.0750002529761904,0.0,0.0,1.5,8.964241350995493e-25,0.0,0.0,-1.5459871024766561e-27,-4.623430525837242e-27,0.0005059523809523809,-5.421651080491999e-28,-1.792825148986733e-21,-2.6640317959713467e-42,0.0,0.0,0.0,4.788155130724299e-27,4.6234305258373045e-26,43.321939211309534,4.788155130724299e-27,3.8881066193591773e-23,43.321939211309534,-4.481849592943722e-25,8.964125744933667e-23,1.3320162867885697e-43,21.660969605654767,21.660969605654767,1.4940209574889444e-22,1.105249492034353e-28,1.105249492034353e-28,21.660969605654767,21.660969605654767,1.4940209574889444e-22,1.105249492034353e-28,1.105249492034353e-28,-8.974913612233121e-25,-8.974913612233121e-25
1762666371.0826833,2.1343431788084525e-27,0.0,1.0750002529761904,0.0,0.0,1.5,8.964241350995493e-25,0.0,0.0,-1.5459871024766561e-27,-4.623430525837242e-27,0.0005059523809523809,-5.421651080491999e-28,-1.792825148986733e-21,-2.6640317959713467e-42,0.0,0.0,0.0,4.788155130724299e-27,4.6234305258373045e-26,43.321939211309534,4.788155130724299e-27,3.8881066193591773e-23,43.321939211309534,-4.481849592943722e-25,8.964125744933667e-23,1.3320162867885697e-43,21.660969605654767,21.660969605654767,1.4940209574889444e-22,1.105249492034353e-28,1.105249492034353e-28,21.660969605654767,21.660969605654767,1.4940209574889444e-22,1.105249492034353e-28,1.105249492034353e-28,-8.974913612233121e-25,-8.974913612233121e-25
1762666371.0843115,2.1343431788084525e-27,0.0,1.0750002529761904,0.0,0.0,1.5,8.964241350995493e-25,0.0,0.0,-1.5459871024766561e-27,-4.623430525837242e-27,0.0005059523809523809,-5.421651080491999e-28,-1.792825148986733e-21,-2.6640317959713467e-42,0.0,0.0,0.0,4.788155130724299e-27,4.6234305258373045e-26,43.321939211309534,4.788155130724299e-27,3.8881066193591773e-23,43.321939211309534,-4.481849592943722e-25,8.964125744933667e-23,1.3320162867885697e-43,21.660969605654767,21.660969605654767,1.4940209574889444e-22,1.105249492034353e-28,1.105249492034353e-28,21.660969605654767,21.660969605654767,1.4940209574889444e-22,1.105249492034353e-28,1.105249492034353e-28,-8.974913612233121e-25,-8.974913612233121e-25
1762666371.0855706,2.1343431788084525e-27,0.0,1.0750002529761904,0.0,0.0,1.5,8.964241350995493e-25,0.0,0.0,-1.5459871024766561e-27,-4.623430525837242e-27,0.0005059523809523809,-5.421651080491999e-28,-1.792825148986733e-21,-2.6640317959713467e-42,0.0,0.0,0.0,4.788155130724299e-27,4.6234305258373045e-26,43.321939211309534,4.788155130724299e-27,3.8881066193591773e-23,43.321939211309534,-4.481849592943722e-25,8.964125744933667e-23,1.3320162867885697e-43,21.660969605654767,21.660969605654767,1.4940209574889444e-22,1.105249492034353e-28,1.105249492034353e-28,21.660969605654767,21.660969605654767,1.4940209574889444e-22,1.105249492034353e-28,1.105249492034353e-28,-8.974913612233121e-25,-8.974913612233121e-25
1762666371.086905,2.1343431788084525e-27,0.0,1.0750002529761904,0.0,0.0,1.5,8.964241350995493e-25,0.0,0.0,-1.5459871024766561e-27,-4.623430525837242e-27,0.0005059523809523809,-5.421651080491999e-28,-1.792825148986733e-21,-2.6640317959713467e-42,0.0,0.0,0.0,4.788155130724299e-27,4.6234305258373045e-26,43.321939211309534,4.788155130724299e-27,3.8881066193591773e-23,43.321939211309534,-4.481849592943722e-25,8.964125744933667e-23,1.3320162867885697e-43,21.660969605654767,21.660969605654767,1.4940209574889444e-22,1.105249492034353e-28,1.105249492034353e-28,21.660969605654767,21.660969605654767,1.4940209574889444e-22,1.105249492034353e-28,1.105249492034353e-28,-8.974913612233121e-25,-8.974913612233121e-25
1762666371.0883946,2.1343431788084525e-27,0.0,1.0750002529761904,0.0,0.0,1.5,8.964241350995493e-25,0.0,0.0,-1.5459871024766561e-27,-4.623430525837242e-27,0.0005059523809523809,-5.421651080491999e-28,-1.792825148986733e-21,-2.6640317959713467e-42,0.0,0.0,0.0,4.788155130724299e-27,4.6234305258373045e-26,43.321939211309534,4.788155130724299e-27,3.8881066193591773e-23,43.321939211309534,-4.481849592943722e-25,8.964125744933667e-23,1.3320162867885697e-43,21.660969605654767,21.660969605654767,1.4940209574889444e-22,1.105249492034353e-28,1.105249492034353e-28,21.660969605654767,21.660969605654767,1.4940209574889444e-22,1.105249492034353e-28,1.105249492034353e-28,-8.974913612233121e-25,-8.974913612233121e-25
1762666371.0899975,2.1343431788084525e-27,0.0,1.0750002529761904,0.0,0.0,1.5,8.964241350995493e-25,0.0,0.0,-1.5459871024766561e-27,-4.623430525837242e-27,0.0005059523809523809,-5.421651080491999e-28,-1.792825148986733e-21,-2.6640317959713467e-42,0.0,0.0,0.0,4.788155130724299e-27,4.6234305258373045e-26,43.321939211309534,4.788155130724299e-27,3.8881066193591773e-23,43.321939211309534,-4.481849592943722e-25,8.964125744933667e-23,1.3320162867885697e-43,21.660969605654767,21.660969605654767,1.4940209574889444e-22,1.105249492034353e-28,1.105249492034353e-28,21.660969605654767,21.660969605654767,1.4940209574889444e-22,1.105249492034353e-28,1.105249492034353e-28,-8.974913612233121e-25,-8.974913612233121e-25
1762666371.0914385,2.1343431788084525e-27,0.0,1.0750002529761904,0.0,0.0,1.5,8.964241350995493e-25,0.0,0.0,-1.5459871024766561e-27,-4.623430525837242e-27,0.0005059523809523809,-5.421651080491999e-28,-1.792825148986733e-21,-2.6640317959713467e-42,0.0,0.0,0.0,4.788155130724299e-27,4.6234305258373045e-26,43.321939211309534,4.788155130724299e-27,3.8881066193591773e-23,43.321939211309534,-4.481849592943722e-25,8.964125744933667e-23,1.3320162867885697e-43,21.660969605654767,21.660969605654767,1.4940209574889444e-22,1.105249492034353e-28,1.105249492034353e-28,21.660969605654767,21.660969605654767,1.4940209574889444e-22,1.105249492034353e-28,1.105249492034353e-28,-8.974913612233121e-25,-8.974913612233121e-25
1762666371.0928526,2.1343431788084525e-27,0.0,1.0750002529761904,0.0,0.0,1.5,8.964241350995493e-25,0.0,0.0,-1.5459871024766561e-27,-4.623430525837242e-27,0.0005059523809523809,-5.421651080491999e-28,-1.792825148986733e-21,-2.6640317959713467e-42,0.0,0.0,0.0,4.788155130724299e-27,4.6234305258373045e-26,43.321939211309534,4.788155130724299e-27,3.8881066193591773e-23,43.321939211309534,-4.481849592943722e-25,8.964125744933667e-23,1.3320162867885697e-43,21.660969605654767,21.660969605654767,1.4940209574889444e-22,1.105249492034353e-28,1.105249492034353e-28,21.660969605654767,21.660969605654767,1.4940209574889444e-22,1.105249492034353e-28,1.105249492034353e-28,-8.974913612233121e-25,-8.974913612233121e-25
1762666371.0942562,2.1343431788084525e-27,0.0,1.0750002529761904,0.0,0.0,1.5,8.964241350995493e-25,0.0,0.0,-1.5459871024766561e-27,-4.623430525837242e-27,0.0005059523809523809,-5.421651080491999e-28,-1.792825148986733e-21,-2.6640317959713467e-42,0.0,0.0,0.0,4.788155130724299e-27,4.6234305258373045e-26,43.321939211309534,4.788155130724299e-27,3.8881066193591773e-23,43.321939211309534,-4.481849592943722e-25,8.964125744933667e-23,1.3320162867885697e-43,21.660969605654767,21.660969605654767,1.4940209574889444e-22,1.105249492034353e-28,1.105249492034353e-28,21.660969605654767,21.660969605654767,1.4940209574889444e-22,1.105249492034353e-28,1.105249492034353e-28,-8.974913612233121e-25,-8.974913612233121e-25
1762666371.0956583,2.1343431788084525e-27,0.0,1.0750002529761904,0.0,0.0,1.5,8.964241350995493e-25,0.0,0.0,-1.5459871024766561e-27,-4.623430525837242e-27,0.0005059523809523809,-5.421651080491999e-28,-1.792825148986733e-21,-2.6640317959713467e-42,0.0,0.0,0.0,4.788155130724299e-27,4.6234305258373045e-26,43.321939211309534,4.788155130724299e-27,3.8881066193591773e-23,43.321939211309534,-4.481849592943722e-25,8.964125744933667e-23,1.3320162867885697e-43,21.660969605654767,21.660969605654767,1.4940209574889444e-22,1.105249492034353e-28,1.105249492034353e-28,21.660969605654767,21.660969605654767,1.4940209574889444e-22,1.105249492034353e-28,1.105249492034353e-28,-8.974913612233121e-25,-8.974913612233121e-25
1762666371.0973594,2.1343431788084525e-27,0.0,1.0750002529761904,0.0,0.0,1.5,8.964241350995493e-25,0.0,0.0,-1.5459871024766561e-27,-4.623430525837242e-27,0.0005059523809523809,-5.421651080491999e-28,-1.792825148986733e-21,-2.6640317959713467e-42,0.0,0.0,0.0,4.788155130724299e-27,4.6234305258373045e-26,43.321939211309534,4.788155130724299e-27,3.8881066193591773e-23,43.321939211309534,-4.481849592943722e-25,8.964125744933667e-23,1.3320162867885697e-43,21.660969605654767,21.660969605654767,1.4940209574889444e-22,1.105249492034353e-28,1.105249492034353e-28,21.660969605654767,21.660969605654767,1.4940209574889444e-22,1.105249492034353e-28,1.105249492034353e-28,-8.974913612233121e-25,-8.974913612233121e-25
1762666371.0990784,2.1343431788084525e-27,0.0,1.0750002529761904,0.0,0.0,1.5,8.964241350995493e-25,0.0,0.0,-1.5459871024766561e-27,-4.623430525837242e-27,0.0005059523809523809,-5.421651080491999e-28,-1.792825148986733e-21,-2.6640317959713467e-42,0.0,0.0,0.0,4.788155130724299e-27,4.6234305258373045e-26,43.321939211309534,4.788155130724299e-27,3.8881066193591773e-23,43.321939211309534,-4.481849592943722e-25,8.964125744933667e-23,1.3320162867885697e-43,21.660969605654767,21.660969605654767,1.4940209574889444e-22,1.105249492034353e-28,1.105249492034353e-28,21.660969605654767,21.660969605654767,1.4940209574889444e-22,1.105249492034353e-28,1.105249492034353e-28,-8.974913612233121e-25,-8.974913612233121e-25
1762666371.1006544,2.1343431788084525e-27,0.0,1.0750002529761904,0.0,0.0,1.5,8.964241350995493e-25,0.0,0.0,-1.5459871024766561e-27,-4.623430525837242e-27,0.0005059523809523809,-5.421651080491999e-28,-1.792825148986733e-21,-2.6640317959713467e-42,0.0,0.0,0.0,4.788155130724299e-27,4.6234305258373045e-26,43.321939211309534,4.788155130724299e-27,3.8881066193591773e-23,43.321939211309534,-4.481849592943722e-25,8.964125744933667e-23,1.3320162867885697e-43,21.660969605654767,21.660969605654767,1.4940209574889444e-22,1.105249492034353e-28,1.105249492034353e-28,21.660969605654767,21.660969605654767,1.4940209574889444e-22,1.105249492034353e-28,1.105249492034353e-28,-8.974913612233121e-25,-8.974913612233121e-25
1762666371.1020122,2.1343431788084525e-27,0.0,1.0750002529761904,0.0,0.0,1.5,8.964241350995493e-25,0.0,0.0,-1.5459871024766561e-27,-4.623430525837242e-27,0.0005059523809523809,-5.421651080491999e-28,-1.792825148986733e-21,-2.6640317959713467e-42,0.0,0.0,0.0,4.788155130724299e-27,4.6234305258373045e-26,43.321939211309534,4.788155130724299e-27,3.8881066193591773e-23,43.321939211309534,-4.481849592943722e-25,8.964125744933667e-23,1.3320162867885697e-43,21.660969605654767,21.660969605654767,1.4940209574889444e-22,1.105249492034353e-28,1.105249492034353e-28,21.660969605654767,21.660969605654767,1.4940209574889444e-22,1.105249492034353e-28,1.105249492034353e-28,-8.974913612233121e-25,-8.974913612233121e-25
1762666371.1033702,2.1343431788084525e-27,0.0,1.0750002529761904,0.0,0.0,1.5,8.964241350995493e-25,0.0,0.0,-1.5459871024766561e-27,-4.623430525837242e-27,0.0005059523809523809,-5.421651080491999e-28,-1.792825148986733e-21,-2.6640317959713467e-42,0.0,0.0,0.0,4.788155130724299e-27,4.6234305258373045e-26,43.321939211309534,4.788155130724299e-27,3.8881066193591773e-23,43.321939211309534,-4.481849592943722e-25,8.964125744933667e-23,1.3320162867885697e-43,21.660969605654767,21.660969605654767,1.4940209574889444e-22,1.105249492034353e-28,1.105249492034353e-28,21.660969605654767,21.660969605654767,1.4940209574889444e-22,1.105249492034353e-28,1.105249492034353e-28,-8.974913612233121e-25,-8.974913612233121e-25
1762666371.1049962,5.688957119402938e-27,-1.2324797940767361e-29,1.075001011302287,0.0,0.0,1.5,2.3910735486875487e-24,0.0,0.0,-6.574419676325114e-27,-2.0036725177737305e-26,0.0010106998122165539,4.491657387132322e-27,-3.284841525108419e-21,-3.68657234556504e-42,0.0,0.0,0.0,4.788155130724299e-27,4.6234305258373045e-26,43.321939211309534,4.788155130724299e-27,3.8881066193591773e-23,43.321939211309534,-4.481849592943722e-25,8.964125744933667e-23,1.3320162867885697e-43,21.660969605654767,21.660969605654767,1.4940209574889444e-22,1.105249492034353e-28,1.105249492034353e-28,21.660969605654767,21.660969605654767,1.4940209574889444e-22,1.105249492034353e-28,1.105249492034353e-28,-8.974913612233121e-25,-8.974913612233121e-25
1762666371.1065695,5.688957119402938e-27,-1.2324797940767361e-29,1.075001011302287,0.0,0.0,1.5,2.3910735486875487e-24,0.0,0.0,-6.574419676325114e-27,-2.0036725177737305e-26,0.0010106998122165539,4.491657387132322e-27,-3.284841525108419e-21,-3.68657234556504e-42,0.0,0.0,0.0,3.729941116623645e-26,2.0042887576708067e-25,43.3168879453664,3.729941116623645e-26,1.0377429385339523e-22,43.3168879453664,-1.195761357213131e-24,1.6424207625542094e-22,1.8432802710294393e-43,21.6584439726832,21.6584439726832,2.7373679375903494e-22,8.610824307895913e-28,8.610824307895913e-28,21.6584439726832,21.6584439726832,2.7373679375903494e-22,8.610824307895913e-28,8.610824307895913e-28,-2.3957005864382727e-24,-2.3957005864382727e-24
1762666371.108078,5.688957119402938e-27,-1.2324797940767361e-29,1.075001011302287,0.0,0.0,1.5,2.3910735486875487e-24,0.0,0.0,-6.574419676325114e-27,-2.0036725177737305e-26,0.0010106998122165539,4.491657387132322e-27,-3.284841525108419e-21,-3.68657234556504e-42,0.0,0.0,0.0,3.729941116623645e-26,2.0042887576708067e-25,43.3168879453664,3.729941116623645e-26,1.0377429385339523e-22,43.3168879453664,-1.195761357213131e-24,1.6424207625542094e-22,1.8432802710294393e-43,21.6584439726832,21.6584439726832,2.7373679375903494e-22,8.610824307895913e-28,8.610824307895913e-28,21.6584439726832,21.6584439726832,2.7373679375903494e-22,8.610824307895913e-28,8.610824307895913e-28,-2.3957005864382727e-24,-2.3957005864382727e-24
1762666371.10939,5.688957119402938e-27,-1.2324797940767361e-29,1.075001011302287,0.0,0.0,1.5,2.3910735486875487e-24,0.0,0.0,-6.574419676325114e-27,-2.0036725177737305e-26,0.0010106998122165539,4.491657387132322e-27,-3.284841525108419e-21,-3.68657234556504e-42,0.0,0.0,0.0,3.729941116623645e-26,2.0042887576708067e-25,43.3168879453664,3.729941116623645e-26,1.0377429385339523e-22,43.3168879453664,-1.195761357213131e-24,1.6424207625542094e-22,1.8432802710294393e-43,21.6584439726832,21.6584439726832,2.7373679375903494e-22,8.610824307895913e-28,8.610824307895913e-28,21.6584439726832,21.6584439726832,2.7373679375903494e-22,8.610824307895913e-28,8.610824307895913e-28,-2.3957005864382727e-24,-2.3957005864382727e-24
1762666371.110968,5.688957119402938e-27,-1.2324797940767361e-29,1.075001011302287,0.0,0.0,1.5,2.3910735486875487e-24,0.0,0.0,-6.574419676325114e-27,-2.0036725177737305e-26,0.0010106998122165539,4.491657387132322e-27,-3.284841525108419e-21,-3.68657234556504e-42,0.0,0.0,0.0,3.729941116623645e-26,2.0042887576708067e-25,43.3168879453664,3.729941116623645e-26,1.0377429385339523e-22,43.3168879453664,-1.195761357213131e-24,1.6424207625542094e-22,1.8432802710294393e-43,21.6584439726832,21.6584439726832,2.7373679375903494e-22,8.610824307895913e-28,8.610824307895913e-28,21.6584439726832,21.6584439726832,2.7373679375903494e-22,8.610824307895913e-28,8.610824307895913e-28,-2.3957005864382727e-24,-2.3957005864382727e-24
1762666371.1126685,5.688957119402938e-27,-1.2324797940767361e-29,1.075001011302287,0.0,0.0,1.5,2.3910735486875487e-24,0.0,0.0,-6.574419676325114e-27,-2.0036725177737305e-26,0.0010106998122165539,4.491657387132322e-27,-3.284841525108419e-21,-3.68657234556504e-42,0.0,0.0,0.0,3.729941116623645e-26,2.0042887576708067e-25,43.3168879453664,3.729941116623645e-26,1.0377429385339523e-22,43.3168879453664,-1.195761357213131e-24,1.6424207625542094e-22,1.8432802710294393e-43,21.6584439726832,21.6584439726832,2.7373679375903494e-22,8.610824307895913e-28,8.610824307895913e-28,21.6584439726832,21.6584439726832,2.7373679375903494e-22,8.610824307895913e-28,8.610824307895913e-28,-2.3957005864382727e-24,-2.3957005864382727e-24
1762666371.1145742,5.688957119402938e-27,-1.2324797940767361e-29,1.075001011302287,0.0,0.0,1.5,2.3910735486875487e-24,0.0,0.0,-6.574419676325114e-27,-2.0036725177737305e-26,0.0010106998122165539,4.491657387132322e-27,-3.284841525108419e-21,-3.68657234556504e-42,0.0,0.0,0.0,3.729941116623645e-26,2.0042887576708067e-25,43.3168879453664,3.729941116623645e-26,1.0377429385339523e-22,43.3168879453664,-1.195761357213131e-24,1.6424207625542094e-22,1.8432802710294393e-43,21.6584439726832,21.6584439726832,2.7373679375903494e-22,8.610824307895913e-28,8.610824307895913e-28,21.6584439726832,21.6584439726832,2.7373679375903494e-22,8.610824307895913e-28,8.610824307895913e-28,-2.3957005864382727e-24,-2.3957005864382727e-24
1762666371.1163297,5.688957119402938e-27,-1.2324797940767361e-29,1.075001011302287,0.0,0.0,1.5,2.3910735486875487e-24,0.0,0.0,-6.574419676325114e-27,-2.0036725177737305e-26,0.0010106998122165539,4.491657387132322e-27,-3.284841525108419e-21,-3.68657234556504e-42,0.0,0.0,0.0,3.729941116623645e-26,2.0042887576708067e-25,43.3168879453664,3.729941116623645e-26,1.0377429385339523e-22,43.3168879453664,-1.195761357213131e-24,1.6424207625542094e-22,1.8432802710294393e-43,21.6584439726832,21.6584439726832,2.7373679375903494e-22,8.610824307895913e-28,8.610824307895913e-28,21.6584439726832,21.6584439726832,2.7373679375903494e-22,8.610824307895913e-28,8.610824307895913e-28,-2.3957005864382727e-24,-2.3957005864382727e-24
1762666371.117926,5.688957119402938e-27,-1.2324797940767361e-29,1.075001011302287,0.0,0.0,1.5,2.3910735486875487e-24,0.0,0.0,-6.574419676325114e-27,-2.0036725177737305e-26,0.0010106998122165539,4.491657387132322e-27,-3.284841525108419e-21,-3.68657234556504e-42,0.0,0.0,0.0,3.729941116623645e-26,2.0042887576708067e-25,43.3168879453664,3.729941116623645e-26,1.0377429385339523e-22,43.3168879453664,-1.195761357213131e-24,1.6424207625542094e-22,1.8432802710294393e-43,21.6584439726832,21.6584439726832,2.7373679375903494e-22,8.610824307895913e-28,8.610824307895913e-28,21.6584439726832,21.6584439726832,2.7373679375903494e-22,8.610824307895913e-28,8.610824307895913e-28,-2.3957005864382727e-24,-2.3957005864382727e-24
1762666371.1195161,5.688957119402938e-27,-1.2324797940767361e-29,1.075001011302287,0.0,0.0,1.5,2.3910735486875487e-24,0.0,0.0,-6.574419676325114e-27,-2.0036725177737305e-26,0.0010106998122165539,4.491657387132322e-27,-3.284841525108419e-21,-3.68657234556504e-42,0.0,0.0,0.0,3.729941116623645e-26,2.0042887576708067e-25,43.3168879453664,3.729941116623645e-26,1.0377429385339523e-22,43.3168879453664,-1.195761357213131e-24,1.6424207625542094e-22,1.8432802710294393e-43,21.6584439726832,21.6584439726832,2.7373679375903494e-22,8.610824307895913e-28,8.610824307895913e-28,21.6584439726832,21.6584439726832,2.7373679375903494e-22,8.610824307895913e-28,8.610824307895913e-28,-2.3957005864382727e-24,-2.3957005864382727e-24
1762666371.1212173,5.688957119402938e-27,-1.2324797940767361e-29,1.075001011302287,0.0,0.0,1.5,2.3910735486875487e-24,0.0,0.0,-6.574419676325114e-27,-2.0036725177737305e-26,0.0010106998122165539,4.491657387132322e-27,-3.284841525108419e-21,-3.68657234556504e-42,0.0,0.0,0.0,3.729941116623645e-26,2.0042887576708067e-25,43.3168879453664,3.729941116623645e-26,1.0377429385339523e-22,43.3168879453664,-1.195761357213131e-24,1.6424207625542094e-22,1.8432802710294393e-43,21.6584439726832,21.6584439726832,2.7373679375903494e-22,8.610824307895913e-28,8.610824307895913e-28,21.6584439726832,21.6584439726832,2.7373679375903494e-22,8.610824307895913e-28,8.610824307895913e-28,-2.3957005864382727e-24,-2.3957005864382727e-24
1762666371.122938,5.688957119402938e-27,-1.2324797940767361e-29,1.075001011302287,0.0,0.0,1.5,2.3910735486875487e-24,0.0,0.0,-6.574419676325114e-27,-2.0036725177737305e-26,0.0010106998122165539,4.491657387132322e-27,-3.284841525108419e-21,-3.68657234556504e-42,0.0,0.0,0.0,3.729941116623645e-26,2.0042887576708067e-25,43.3168879453664,3.729941116623645e-26,1.0377429385339523e-22,43.3168879453664,-1.195761357213131e-24,1.6424207625542094e-22,1.8432802710294393e-43,21.6584439726832,21.6584439726832,2.7373679375903494e-22,8.610824307895913e-28,8.610824307895913e-28,21.6584439726832,21.6584439726832,2.7373679375903494e-22,8.610824307895913e-28,8.610824307895913e-28,-2.3957005864382727e-24,-2.3957005864382727e-24
1762666371.1246648,5.688957119402938e-27,-1.2324797940767361e-29,1.075001011302287,0.0,0.0,1.5,2.3910735486875487e-24,0.0,0.0,-6.574419676325114e-27,-2.0036725177737305e-26,0.0010106998122165539,4.491657387132322e-27,-3.284841525108419e-21,-3.68657234556504e-42,0.0,0.0,0.0,3.729941116623645e-26,2.0042887576708067e-25,43.3168879453664,3.729941116623645e-26,1.0377429385339523e-22,43.3168879453664,-1.195761357213131e-24,1.6424207625542094e-22,1.8432802710294393e-43,21.6584439726832,21.6584439726832,2.7373679375903494e-22,8.610824307895913e-28,8.610824307895913e-28,21.6584439726832,21.6584439726832,2.7373679375903494e-22,8.610824307895913e-28,8.610824307895913e-28,-2.3957005864382727e-24,-2.3957005864382727e-24
1762666371.1262543,5.688957119402938e-27,-1.2324797940767361e-29,1.075001011302287,0.0,0.0,1.5,2.3910735486875487e-24,0.0,0.0,-6.574419676325114e-27,-2.0036725177737305e-26,0.0010106998122165539,4.491657387132322e-27,-3.284841525108419e-21,-3.68657234556504e-42,0.0,0.0,0.0,3.729941116623645e-26,2.0042887576708067e-25,43.3168879453664,3.729941116623645e-26,1.0377429385339523e-22,43.3168879453664,-1.195761357213131e-24,1.6424207625542094e-22,1.8432802710294393e-43,21.6584439726832,21.6584439726832,2.7373679375903494e-22,8.610824307895913e-28,8.610824307895913e-28,21.6584439726832,21.6584439726832,2.7373679375903494e-22,8.610824307895913e-28,8.610824307895913e-28,-2.3957005864382727e-24,-2.3957005864382727e-24
1762666371.1278515,5.688957119402938e-27,-1.2324797940767361e-29,1.075001011302287,0.0,0.0,1.5,2.3910735486875487e-24,0.0,0.0,-6.574419676325114e-27,-2.0036725177737305e-26,0.0010106998122165539,4.491657387132322e-27,-3.284841525108419e-21,-3.68657234556504e-42,0.0,0.0,0.0,3.729941116623645e-26,2.0042887576708067e-25,43.3168879453664,3.729941116623645e-26,1.0377429385339523e-22,43.3168879453664,-1.195761357213131e-24,1.6424207625542094e-22,1.8432802710294393e-43,21.6584439726832,21.6584439726832,2.7373679375903494e-22,8.610824307895913e-28,8.610824307895913e-28,21.6584439726832,21.6584439726832,2.7373679375903494e-22,8.610824307895913e-28,8.610824307895913e-28,-2.3957005864382727e-24,-2.3957005864382727e-24
1762666371.1293437,5.688957119402938e-27,-1.2324797940767361e-29,1.075001011302287,0.0,0.0,1.5,2.3910735486875487e-24,0.0,0.0,-6.574419676325114e-27,-2.0036725177737305e-26,0.0010106998122165539,4.491657387132322e-27,-3.284841525108419e-21,-3.68657234556504e-42,0.0,0.0,0.0,3.729941116623645e-26,2.0042887576708067e-25,43.3168879453664,3.729941116623645e-26,1.0377429385339523e-22,43.3168879453664,-1.195761357213131e-24,1.6424207625542094e-22,1.8432802710294393e-43,21.6584439726832,21.6584439726832,2.7373679375903494e-22,8.610824307895913e-28,8.610824307895913e-28,21.6584439726832,21.6584439726832,2.7373679375903494e-22,8.610824307895913e-28,8.610824307895913e-28,-2.3957005864382727e-24,-2.3957005864382727e-24
1762666371.1309142,5.688957119402938e-27,-1.2324797940767361e-29,1.075001011302287,0.0,0.0,1.5,2.3910735486875487e-24,0.0,0.0,-6.574419676325114e-27,-2.0036725177737305e-26,0.0010106998122165539,4.491657387132322e-27,-3.284841525108419e-21,-3.68657234556504e-42,0.0,0.0,0.0,3.729941116623645e-26,2.0042887576708067e-25,43.3168879453664,3.729941116623645e-26,1.0377429385339523e-22,43.3168879453664,-1.195761357213131e-24,1.6424207625542094e-22,1.8432802710294393e-43,21.6584439726832,21.6584439726832,2.7373679375903494e-22,8.610824307895913e-28,8.610824307895913e-28,21.6584439726832,21.6584439726832,2.7373679375903494e-22,8.610824307895913e-28,8.610824307895913e-28,-2.3957005864382727e-24,-2.3957005864382727e-24
1762666371.1323974,5.688957119402938e-27,-1.2324797940767361e-29,1.075001011302287,0.0,0.0,1.5,2.3910735486875487e-24,0.0,0.0,-6.574419676325114e-27,-2.0036725177737305e-26,0.0010106998122165539,4.491657387132322e-27,-3.284841525108419e-21,-3.68657234556504e-42,0.0,0.0,0.0,3.729941116623645e-26,2.0042887576708067e-25,43.3168879453664,3.729941116623645e-26,1.0377429385339523e-22,43.3168879453664,-1.195761357213131e-24,1.6424207625542094e-22,1.8432802710294393e-43,21.6584439726832,21.6584439726832,2.7373679375903494e-22,8.610824307895913e-28,8.610824307895913e-28,21.6584439726832,21.6584439726832,2.7373679375903494e-22,8.610824307895913e-28,8.610824307895913e-28,-2.3957005864382727e-24,-2.3957005864382727e-24
1762666371.133808,5.688957119402938e-27,-1.2324797940767361e-29,1.075001011302287,0.0,0.0,1.5,2.3910735486875487e-24,0.0,0.0,-6.574419676325114e-27,-2.0036725177737305e-26,0.0010106998122165539,4.491657387132322e-27,-3.284841525108419e-21,-3.68657234556504e-42,0.0,0.0,0.0,3.729941116623645e-26,2.0042887576708067e-25,43.3168879453664,3.729941116623645e-26,1.0377429385339523e-22,43.3168879453664,-1.195761357213131e-24,1.6424207625542094e-22,1.8432802710294393e-43,21.6584439726832,21.6584439726832,2.7373679375903494e-22,8.610824307895913e-28,8.610824307895913e-28,21.6584439726832,21.6584439726832,2.7373679375903494e-22,8.610824307895913e-28,8.610824307895913e-28,-2.3957005864382727e-24,-2.3957005864382727e-24
1762666371.1351259,5.688957119402938e-27,-1.2324797940767361e-29,1.075001011302287,0.0,0.0,1.5,2.3910735486875487e-24,0.0,0.0,-6.574419676325114e-27,-2.0036725177737305e-26,0.0010106998122165539,4.491657387132322e-27,-3.284841525108419e-21,-3.68657234556504e-42,0.0,0.0,0.0,3.729941116623645e-26,2.0042887576708067e-25,43.3168879453664,3.729941116623645e-26,1.0377429385339523e-22,43.3168879453664,-1.195761357213131e-24,1.6424207625542094e-22,1.8432802710294393e-43,21.6584439726832,21.6584439726832,2.7373679375903494e-22,8.610824307895913e-28,8.610824307895913e-28,21.6584439726832,21.6584439726832,2.7373679375903494e-22,8.610824307895913e-28,8.610824307895913e-28,-2.3957005864382727e-24,-2.3957005864382727e-24
1762666371.1364024,5.688957119402938e-27,-1.2324797940767361e-29,1.075001011302287,0.0,0.0,1.5,2.3910735486875487e-24,0.0,0.0,-6.574419676325114e-27,-2.0036725177737305e-26,0.0010106998122165539,4.491657387132322e-27,-3.284841525108419e-21,-3.68657234556504e-42,0.0,0.0,0.0,3.729941116623645e-26,2.0042887576708067e-25,43.3168879453664,3.729941116623645e-26,1.0377429385339523e-22,43.3168879453664,-1.195761357213131e-24,1.6424207625542094e-22,1.8432802710294393e-43,21.6584439726832,21.6584439726832,2.7373679375903494e-22,8.610824307895913e-28,8.610824307895913e-28,21.6584439726832,21.6584439726832,2.7373679375903494e-22,8.610824307895913e-28,8.610824307895913e-28,-2.3957005864382727e-24,-2.3957005864382727e-24
1762666371.1377032,5.688957119402938e-27,-1.2324797940767361e-29,1.075001011302287,0.0,0.0,1.5,2.3910735486875487e-24,0.0,0.0,-6.574419676325114e-27,-2.0036725177737305e-26,0.0010106998122165539,4.491657387132322e-27,-3.284841525108419e-21,-3.68657234556504e-42,0.0,0.0,0.0,3.729941116623645e-26,2.0042887576708067e-25,43.3168879453664,3.729941116623645e-26,1.0377429385339523e-22,43.3168879453664,-1.195761357213131e-24,1.6424207625542094e-22,1.8432802710294393e-43,21.6584439726832,21.6584439726832,2.7373679375903494e-22,8.610824307895913e-28,8.610824307895913e-28,21.6584439726832,21.6584439726832,2.7373679375903494e-22,8.610824307895913e-28,8.610824307895913e-28,-2.3957005864382727e-24,-2.3957005864382727e-24
1762666371.139189,5.688957119402938e-27,-1.2324797940767361e-29,1.075001011302287,0.0,0.0,1.5,2.3910735486875487e-24,0.0,0.0,-6.574419676325114e-27,-2.0036725177737305e-26,0.0010106998122165539,4.491657387132322e-27,-3.284841525108419e-21,-3.68657234556504e-42,0.0,0.0,0.0,3.729941116623645e-26,2.0042887576708067e-25,43.3168879453664,3.729941116623645e-26,1.0377429385339523e-22,43.3168879453664,-1.195761357213131e-24,1.6424207625542094e-22,1.8432802710294393e-43,21.6584439726832,21.6584439726832,2.7373679375903494e-22,8.610824307895913e-28,8.610824307895913e-28,21.6584439726832,21.6584439726832,2.7373679375903494e-22,8.610824307895913e-28,8.610824307895913e-28,-2.3957005864382727e-24,-2.3957005864382727e-24
1762666371.140666,5.688957119402938e-27,-1.2324797940767361e-29,1.075001011302287,0.0,0.0,1.5,2.3910735486875487e-24,0.0,0.0,-6.574419676325114e-27,-2.0036725177737305e-26,0.0010106998122165539,4.491657387132322e-27,-3.284841525108419e-21,-3.68657234556504e-42,0.0,0.0,0.0,3.729941116623645e-26,2.0042887576708067e-25,43.3168879453664,3.729941116623645e-26,1.0377429385339523e-22,43.3168879453664,-1.195761357213131e-24,1.6424207625542094e-22,1.8432802710294393e-43,21.6584439726832,21.6584439726832,2.7373679375903494e-22,8.610824307895913e-28,8.610824307895913e-28,21.6584439726832,21.6584439726832,2.7373679375903494e-22,8.610824307895913e-28,8.610824307895913e-28,-2.3957005864382727e-24,-2.3957005864382727e-24
1762666371.1421516,5.688957119402938e-27,-1.2324797940767361e-29,1.075001011302287,0.0,0.0,1.5,2.3910735486875487e-24,0.0,0.0,-6.574419676325114e-27,-2.0036725177737305e-26,0.0010106998122165539,4.491657387132322e-27,-3.284841525108419e-21,-3.68657234556504e-42,0.0,0.0,0.0,3.729941116623645e-26,2.0042887576708067e-25,43.3168879453664,3.729941116623645e-26,1.0377429385339523e-22,43.3168879453664,-1.195761357213131e-24,1.6424207625542094e-22,1.8432802710294393e-43,21.6584439726832,21.6584439726832,2.7373679375903494e-22,8.610824307895913e-28,8.610824307895913e-28,21.6584439726832,21.6584439726832,2.7373679375903494e-22,8.610824307895913e-28,8.610824307895913e-28,-2.3957005864382727e-24,-2.3957005864382727e-24
1762666371.1435044,5.688957119402938e-27,-1.2324797940767361e-29,1.075001011302287,0.0,0.0,1.5,2.3910735486875487e-24,0.0,0.0,-6.574419676325114e-27,-2.0036725177737305e-26,0.0010106998122165539,4.491657387132322e-27,-3.284841525108419e-21,-3.68657234556504e-42,0.0,0.0,0.0,3.729941116623645e-26,2.0042887576708067e-25,43.3168879453664,3.729941116623645e-26,1.0377429385339523e-22,43.3168879453664,-1.195761357213131e-24,1.6424207625542094e-22,1.8432802710294393e-43,21.6584439726832,21.6584439726832,2.7373679375903494e-22,8.610824307895913e-28,8.610824307895913e-28,21.6584439726832,21.6584439726832,2.7373679375903494e-22,8.610824307895913e-28,8.610824307895913e-28,-2.3957005864382727e-24,-2.3957005864382727e-24
1762666371.1447754,5.688957119402938e-27,-1.2324797940767361e-29,1.075001011302287,0.0,0.0,1.5,2.3910735486875487e-24,0.0,0.0,-6.574419676325114e-27,-2.0036725177737305e-26,0.0010106998122165539,4.491657387132322e-27,-3.284841525108419e-21,-3.68657234556504e-42,0.0,0.0,0.0,3.729941116623645e-26,2.0042887576708067e-25,43.3168879453664,3.729941116623645e-26,1.0377429385339523e-22,43.3168879453664,-1.195761357213131e-24,1.6424207625542094e-22,1.8432802710294393e-43,21.6584439726832,21.6584439726832,2.7373679375903494e-22,8.610824307895913e-28,8.610824307895913e-28,21.6584439726832,21.6584439726832,2.7373679375903494e-22,8.610824307895913e-28,8.610824307895913e-28,-2.3957005864382727e-24,-2.3957005864382727e-24
1762666371.146157,5.688957119402938e-27,-1.2324797940767361e-29,1.075001011302287,0.0,0.0,1.5,2.3910735486875487e-24,0.0,0.0,-6.574419676325114e-27,-2.0036725177737305e-26,0.0010106998122165539,4.491657387132322e-27,-3.284841525108419e-21,-3.68657234556504e-42,0.0,0.0,0.0,3.729941116623645e-26,2.0042887576708067e-25,43.3168879453664,3.729941116623645e-26,1.0377429385339523e-22,43.3168879453664,-1.195761357213131e-24,1.6424207625542094e-22,1.8432802710294393e-43,21.6584439726832,21.6584439726832,2.7373679375903494e-22,8.610824307895913e-28,8.610824307895913e-28,21.6584439726832,21.6584439726832,2.7373679375903494e-22,8.610824307895913e-28,8.610824307895913e-28,-2.3957005864382727e-24,-2.3957005864382727e-24
1762666371.1475787,5.688957119402938e-27,-1.2324797940767361e-29,1.075001011302287,0.0,0.0,1.5,2.3910735486875487e-24,0.0,0.0,-6.574419676325114e-27,-2.0036725177737305e-26,0.0010106998122165539,4.491657387132322e-27,-3.284841525108419e-21,-3.68657234556504e-42,0.0,0.0,0.0,3.729941116623645e-26,2.0042887576708067e-25,43.3168879453664,3.729941116623645e-26,1.0377429385339523e-22,43.3168879453664,-1.195761357213131e-24,1.6424207625542094e-22,1.8432802710294393e-43,21.6584439726832,21.6584439726832,2.7373679375903494e-22,8.610824307895913e-28,8.610824307895913e-28,21.6584439726832,21.6584439726832,2.7373679375903494e-22,8.610824307895913e-28,8.610824307895913e-28,-2.3957005864382727e-24,-2.3957005864382727e-24
1762666371.1490452,5.688957119402938e-27,-1.2324797940767361e-29,1.075001011302287,0.0,0.0,1.5,2.3910735486875487e-24,0.0,0.0,-6.574419676325114e-27,-2.0036725177737305e-26,0.0010106998122165539,4.491657387132322e-27,-3.284841525108419e-21,-3.68657234556504e-42,0.0,0.0,0.0,3.729941116623645e-26,2.0042887576708067e-25,43.3168879453664,3.729941116623645e-26,1.0377429385339523e-22,43.3168879453664,-1.195761357213131e-24,1.6424207625542094e-22,1.8432802710294393e-43,21.6584439726832,21.6584439726832,2.7373679375903494e-22,8.610824307895913e-28,8.610824307895913e-28,21.6584439726832,21.6584439726832,2.7373679375903494e-22,8.610824307895913e-28,8.610824307895913e-28,-2.3957005864382727e-24,-2.3957005864382727e-24
1762666371.1504133,5.688957119402938e-27,-1.2324797940767361e-29,1.075001011302287,0.0,0.0,1.5,2.3910735486875487e-24,0.0,0.0,-6.574419676325114e-27,-2.0036725177737305e-26,0.0010106998122165539,4.491657387132322e-27,-3.284841525108419e-21,-3.68657234556504e-42,0.0,0.0,0.0,3.729941116623645e-26,2.0042887576708067e-25,43.3168879453664,3.729941116623645e-26,1.0377429385339523e-22,43.3168879453664,-1.195761357213131e-24,1.6424207625542094e-22,1.8432802710294393e-43,21.6584439726832,21.6584439726832,2.7373679375903494e-22,8.610824307895913e-28,8.610824307895913e-28,21.6584439726832,21.6584439726832,2.7373679375903494e-22,8.610824307895913e-28,8.610824307895913e-28,-2.3957005864382727e-24,-2.3957005864382727e-24
1762666371.1516335,5.688957119402938e-27,-1.2324797940767361e-29,1.075001011302287,0.0,0.0,1.5,2.3910735486875487e-24,0.0,0.0,-6.574419676325114e-27,-2.0036725177737305e-26,0.0010106998122165539,4.491657387132322e-27,-3.284841525108419e-21,-3.68657234556504e-42,0.0,0.0,0.0,3.729941116623645e-26,2.0042887576708067e-25,43.3168879453664,3.729941116623645e-26,1.0377429385339523e-22,43.3168879453664,-1.195761357213131e-24,1.6424207625542094e-22,1.8432802710294393e-43,21.6584439726832,21.6584439726832,2.7373679375903494e-22,8.610824307895913e-28,8.610824307895913e-28,21.6584439726832,21.6584439726832,2.7373679375903494e-22,8.610824307895913e-28,8.610824307895913e-28,-2.3957005864382727e-24,-2.3957005864382727e-24
1762666371.152856,5.688957119402938e-27,-1.2324797940767361e-29,1.075001011302287,0.0,0.0,1.5,2.3910735486875487e-24,0.0,0.0,-6.574419676325114e-27,-2.0036725177737305e-26,0.0010106998122165539,4.491657387132322e-27,-3.284841525108419e-21,-3.68657234556504e-42,0.0,0.0,0.0,3.729941116623645e-26,2.0042887576708067e-25,43.3168879453664,3.729941116623645e-26,1.0377429385339523e-22,43.3168879453664,-1.195761357213131e-24,1.6424207625542094e-22,1.8432802710294393e-43,21.6584439726832,21.6584439726832,2.7373679375903494e-22,8.610824307895913e-28,8.610824307895913e-28,21.6584439726832,21.6584439726832,2.7373679375903494e-22,8.610824307895913e-28,8.610824307895913e-28,-2.3957005864382727e-24,-2.3957005864382727e-24
1762666371.154238,5.688957119402938e-27,-1.2324797940767361e-29,1.075001011302287,0.0,0.0,1.5,2.3910735486875487e-24,0.0,0.0,-6.574419676325114e-27,-2.0036725177737305e-26,0.0010106998122165539,4.491657387132322e-27,-3.284841525108419e-21,-3.68657234556504e-42,0.0,0.0,0.0,3.729941116623645e-26,2.0042887576708067e-25,43.3168879453664,3.729941116623645e-26,1.0377429385339523e-22,43.3168879453664,-1.195761357213131e-24,1.6424207625542094e-22,1.8432802710294393e-43,21.6584439726832,21.6584439726832,2.7373679375903494e-22,8.610824307895913e-28,8.610824307895913e-28,21.6584439726832,21.6584439726832,2.7373679375903494e-22,8.610824307895913e-28,8.610824307895913e-28,-2.3957005864382727e-24,-2.3957005864382727e-24
1762666371.1556776,5.688957119402938e-27,-1.2324797940767361e-29,1.075001011302287,0.0,0.0,1.5,2.3910735486875487e-24,0.0,0.0,-6.574419676325114e-27,-2.0036725177737305e-26,0.0010106998122165539,4.491657387132322e-27,-3.284841525108419e-21,-3.68657234556504e-42,0.0,0.0,0.0,3.729941116623645e-26,2.0042887576708067e-25,43.3168879453664,3.729941116623645e-26,1.0377429385339523e-22,43.3168879453664,-1.195761357213131e-24,1.6424207625542094e-22,1.8432802710294393e-43,21.6584439726832,21.6584439726832,2.7373679375903494e-22,8.610824307895913e-28,8.610824307895913e-28,21.6584439726832,21.6584439726832,2.7373679375903494e-22,8.610824307895913e-28,8.610824307895913e-28,-2.3957005864382727e-24,-2.3957005864382727e-24
1762666371.1571047,5.688957119402938e-27,-1.2324797940767361e-29,1.075001011302287,0.0,0.0,1.5,2.3910735486875487e-24,0.0,0.0,-6.574419676325114e-27,-2.0036725177737305e-26,0.0010106998122165539,4.491657387132322e-27,-3.284841525108419e-21,-3.68657234556504e-42,0.0,0.0,0.0,3.729941116623645e-26,2.0042887576708067e-25,43.3168879453664,3.729941116623645e-26,1.0377429385339523e-22,43.3168879453664,-1.195761357213131e-24,1.6424207625542094e-22,1.8432802710294393e-43,21.6584439726832,21.6584439726832,2.7373679375903494e-22,8.610824307895913e-28,8.610824307895913e-28,21.6584439726832,21.6584439726832,2.7373679375903494e-22,8.610824307895913e-28,8.610824307895913e-28,-2.3957005864382727e-24,-2.3957005864382727e-24
1762666371.158435,5.688957119402938e-27,-1.2324797940767361e-29,1.075001011302287,0.0,0.0,1.5,2.3910735486875487e-24,0.0,0.0,-6.574419676325114e-27,-2.0036725177737305e-26,0.0010106998122165539,4.491657387132322e-27,-3.284841525108419e-21,-3.68657234556504e-42,0.0,0.0,0.0,3.729941116623645e-26,2.0042887576708067e-25,43.3168879453664,3.729941116623645e-26,1.0377429385339523e-22,43.3168879453664,-1.195761357213131e-24,1.6424207625542094e-22,1.8432802710294393e-43,21.6584439726832,21.6584439726832,2.7373679375903494e-22,8.610824307895913e-28,8.610824307895913e-28,21.6584439726832,21.6584439726832,2.7373679375903494e-22,8.610824307895913e-28,8.610824307895913e-28,-2.3957005864382727e-24,-2.3957005864382727e-24
1762666371.1596909,5.688957119402938e-27,-1.2324797940767361e-29,1.075001011302287,0.0,0.0,1.5,2.3910735486875487e-24,0.0,0.0,-6.574419676325114e-27,-2.0036725177737305e-26,0.0010106998122165539,4.491657387132322e-27,-3.284841525108419e-21,-3.68657234556504e-42,0.0,0.0,0.0,3.729941116623645e-26,2.0042887576708067e-25,43.3168879453664,3.729941116623645e-26,1.0377429385339523e-22,43.3168879453664,-1.195761357213131e-24,1.6424207625542094e-22,1.8432802710294393e-43,21.6584439726832,21.6584439726832,2.7373679375903494e-22,8.610824307895913e-28,8.610824307895913e-28,21.6584439726832,21.6584439726832,2.7373679375903494e-22,8.610824307895913e-28,8.610824307895913e-28,-2.3957005864382727e-24,-2.3957005864382727e-24
1762666371.1610491,5.688957119402938e-27,-1.2324797940767361e-29,1.075001011302287,0.0,0.0,1.5,2.3910735486875487e-24,0.0,0.0,-6.574419676325114e-27,-2.0036725177737305e-26,0.0010106998122165539,4.491657387132322e-27,-3.284841525108419e-21,-3.68657234556504e-42,0.0,0.0,0.0,3.729941116623645e-26,2.0042887576708067e-25,43.3168879453664,3.729941116623645e-26,1.0377429385339523e-22,43.3168879453664,-1.195761357213131e-24,1.6424207625542094e-22,1.8432802710294393e-43,21.6584439726832,21.6584439726832,2.7373679375903494e-22,8.610824307895913e-28,8.610824307895913e-28,21.6584439726832,21.6584439726832,2.7373679375903494e-22,8.610824307895913e-28,8.610824307895913e-28,-2.3957005864382727e-24,-2.3957005864382727e-24
1762666371.1624112,5.688957119402938e-27,-1.2324797940767361e-29,1.075001011302287,0.0,0.0,1.5,2.3910735486875487e-24,0.0,0.0,-6.574419676325114e-27,-2.0036725177737305e-26,0.0010106998122165539,4.491657387132322e-27,-3.284841525108419e-21,-3.68657234556504e-42,0.0,0.0,0.0,3.729941116623645e-26,2.0042887576708067e-25,43.3168879453664,3.729941116623645e-26,1.0377429385339523e-22,43.3168879453664,-1.195761357213131e-24,1.6424207625542094e-22,1.8432802710294393e-43,21.6584439726832,21.6584439726832,2.7373679375903494e-22,8.610824307895913e-28,8.610824307895913e-28,21.6584439726832,21.6584439726832,2.7373679375903494e-22,8.610824307895913e-28,8.610824307895913e-28,-2.3957005864382727e-24,-2.3957005864382727e-24
1762666371.1639855,5.688957119402938e-27,-1.2324797940767361e-29,1.075001011302287,0.0,0.0,1.5,2.3910735486875487e-24,0.0,0.0,-6.574419676325114e-27,-2.0036725177737305e-26,0.0010106998122165539,4.491657387132322e-27,-3.284841525108419e-21,-3.68657234556504e-42,0.0,0.0,0.0,3.729941116623645e-26,2.0042887576708067e-25,43.3168879453664,3.729941116623645e-26,1.0377429385339523e-22,43.3168879453664,-1.195761357213131e-24,1.6424207625542094e-22,1.8432802710294393e-43,21.6584439726832,21.6584439726832,2.7373679375903494e-22,8.610824307895913e-28,8.610824307895913e-28,21.6584439726832,21.6584439726832,2.7373679375903494e-22,8.610824307895913e-28,8.610824307895913e-28,-2.3957005864382727e-24,-2.3957005864382727e-24
1762666371.1653898,5.688957119402938e-27,-1.2324797940767361e-29,1.075001011302287,0.0,0.0,1.5,2.3910735486875487e-24,0.0,0.0,-6.574419676325114e-27,-2.0036725177737305e-26,0.0010106998122165539,4.491657387132322e-27,-3.284841525108419e-21,-3.68657234556504e-42,0.0,0.0,0.0,3.729941116623645e-26,2.0042887576708067e-25,43.3168879453664,3.729941116623645e-26,1.0377429385339523e-22,43.3168879453664,-1.195761357213131e-24,1.6424207625542094e-22,1.8432802710294393e-43,21.6584439726832,21.6584439726832,2.7373679375903494e-22,8.610824307895913e-28,8.610824307895913e-28,21.6584439726832,21.6584439726832,2.7373679375903494e-22,8.610824307895913e-28,8.610824307895913e-28,-2.3957005864382727e-24,-2.3957005864382727e-24
1762666371.1668398,5.688957119402938e-27,-1.2324797940767361e-29,1.075001011302287,0.0,0.0,1.5,2.3910735486875487e-24,0.0,0.0,-6.574419676325114e-27,-2.0036725177737305e-26,0.0010106998122165539,4.491657387132322e-27,-3.284841525108419e-21,-3.68657234556504e-42,0.0,0.0,0.0,3.729941116623645e-26,2.0042887576708067e-25,43.3168879453664,3.729941116623645e-26,1.0377429385339523e-22,43.3168879453664,-1.195761357213131e-24,1.6424207625542094e-22,1.8432802710294393e-43,21.6584439726832,21.6584439726832,2.7373679375903494e-22,8.610824307895913e-28,8.610824307895913e-28,21.6584439726832,21.6584439726832,2.7373679375903494e-22,8.610824307895913e-28,8.610824307895913e-28,-2.3957005864382727e-24,-2.3957005864382727e-24
1762666371.1681087,5.688957119402938e-27,-1.2324797940767361e-29,1.075001011302287,0.0,0.0,1.5,2.3910735486875487e-24,0.0,0.0,-6.574419676325114e-27,-2.0036725177737305e-26,0.0010106998122165539,4.491657387132322e-27,-3.284841525108419e-21,-3.68657234556504e-42,0.0,0.0,0.0,3.729941116623645e-26,2.0042887576708067e-25,43.3168879453664,3.729941116623645e-26,1.0377429385339523e-22,43.3168879453664,-1.195761357213131e-24,1.6424207625542094e-22,1.8432802710294393e-43,21.6584439726832,21.6584439726832,2.7373679375903494e-22,8.610824307895913e-28,8.610824307895913e-28,21.6584439726832,21.6584439726832,2.7373679375903494e-22,8.610824307895913e-28,8.610824307895913e-28,-2.3957005864382727e-24,-2.3957005864382727e-24
1762666371.169436,5.688957119402938e-27,-1.2324797940767361e-29,1.075001011302287,0.0,0.0,1.5,2.3910735486875487e-24,0.0,0.0,-6.574419676325114e-27,-2.0036725177737305e-26,0.0010106998122165539,4.491657387132322e-27,-3.284841525108419e-21,-3.68657234556504e-42,0.0,0.0,0.0,3.729941116623645e-26,2.0042887576708067e-25,43.3168879453664,3.729941116623645e-26,1.0377429385339523e-22,43.3168879453664,-1.195761357213131e-24,1.6424207625542094e-22,1.8432802710294393e-43,21.6584439726832,21.6584439726832,2.7373679375903494e-22,8.610824307895913e-28,8.610824307895913e-28,21.6584439726832,21.6584439726832,2.7373679375903494e-22,8.610824307895913e-28,8.610824307895913e-28,-2.3957005864382727e-24,-2.3957005864382727e-24
1762666371.1709435,5.688957119402938e-27,-1.2324797940767361e-29,1.075001011302287,0.0,0.0,1.5,2.3910735486875487e-24,0.0,0.0,-6.574419676325114e-27,-2.0036725177737305e-26,0.0010106998122165539,4.491657387132322e-27,-3.284841525108419e-21,-3.68657234556504e-42,0.0,0.0,0.0,3.729941116623645e-26,2.0042887576708067e-25,43.3168879453664,3.729941116623645e-26,1.0377429385339523e-22,43.3168879453664,-1.195761357213131e-24,1.6424207625542094e-22,1.8432802710294393e-43,21.6584439726832,21.6584439726832,2.7373679375903494e-22,8.610824307895913e-28,8.610824307895913e-28,21.6584439726832,21.6584439726832,2.7373679375903494e-22,8.610824307895913e-28,8.610824307895913e-28,-2.3957005864382727e-24,-2.3957005864382727e-24
1762666371.1725163,5.688957119402938e-27,-1.2324797940767361e-29,1.075001011302287,0.0,0.0,1.5,2.3910735486875487e-24,0.0,0.0,-6.574419676325114e-27,-2.0036725177737305e-26,0.0010106998122165539,4.491657387132322e-27,-3.284841525108419e-21,-3.68657234556504e-42,0.0,0.0,0.0,3.729941116623645e-26,2.0042887576708067e-25,43.3168879453664,3.729941116623645e-26,1.0377429385339523e-22,43.3168879453664,-1.195761357213131e-24,1.6424207625542094e-22,1.8432802710294393e-43,21.6584439726832,21.6584439726832,2.7373679375903494e-22,8.610824307895913e-28,8.610824307895913e-28,21.6584439726832,21.6584439726832,2.7373679375903494e-22,8.610824307895913e-28,8.610824307895913e-28,-2.3957005864382727e-24,-2.3957005864382727e-24
1762666371.1739743,5.688957119402938e-27,-1.2324797940767361e-29,1.075001011302287,0.0,0.0,1.5,2.3910735486875487e-24,0.0,0.0,-6.574419676325114e-27,-2.0036725177737305e-26,0.0010106998122165539,4.491657387132322e-27,-3.284841525108419e-21,-3.68657234556504e-42,0.0,0.0,0.0,3.729941116623645e-26,2.0042887576708067e-25,43.3168879453664,3.729941116623645e-26,1.0377429385339523e-22,43.3168879453664,-1.195761357213131e-24,1.6424207625542094e-22,1.8432802710294393e-43,21.6584439726832,21.6584439726832,2.7373679375903494e-22,8.610824307895913e-28,8.610824307895913e-28,21.6584439726832,21.6584439726832,2.7373679375903494e-22,8.610824307895913e-28,8.610824307895913e-28,-2.3957005864382727e-24,-2.3957005864382727e-24
1762666371.1753232,5.688957119402938e-27,-1.2324797940767361e-29,1.075001011302287,0.0,0.0,1.5,2.3910735486875487e-24,0.0,0.0,-6.574419676325114e-27,-2.0036725177737305e-26,0.0010106998122165539,4.491657387132322e-27,-3.284841525108419e-21,-3.68657234556504e-42,0.0,0.0,0.0,3.729941116623645e-26,2.0042887576708067e-25,43.3168879453664,3.729941116623645e-26,1.0377429385339523e-22,43.3168879453664,-1.195761357213131e-24,1.6424207625542094e-22,1.8432802710294393e-43,21.6584439726832,21.6584439726832,2.7373679375903494e-22,8.610824307895913e-28,8.610824307895913e-28,21.6584439726832,21.6584439726832,2.7373679375903494e-22,8.610824307895913e-28,8.610824307895913e-28,-2.3957005864382727e-24,-2.3957005864382727e-24
1762666371.176553,5.688957119402938e-27,-1.2324797940767361e-29,1.075001011302287,0.0,0.0,1.5,2.3910735486875487e-24,0.0,0.0,-6.574419676325114e-27,-2.0036725177737305e-26,0.0010106998122165539,4.491657387132322e-27,-3.284841525108419e-21,-3.68657234556504e-42,0.0,0.0,0.0,3.729941116623645e-26,2.0042887576708067e-25,43.3168879453664,3.729941116623645e-26,1.0377429385339523e-22,43.3168879453664,-1.195761357213131e-24,1.6424207625542094e-22,1.8432802710294393e-43,21.6584439726832,21.6584439726832,2.7373679375903494e-22,8.610824307895913e-28,8.610824307895913e-28,21.6584439726832,21.6584439726832,2.7373679375903494e-22,8.610824307895913e-28,8.610824307895913e-28,-2.3957005864382727e-24,-2.3957005864382727e-24
1762666371.1779118,1.1368159890664061e-26,-5.0311380108698644e-29,1.0750022737744735,0.0,0.0,1.5,4.7815590162848084e-24,0.0,0.0,-1.9075242647181063e-26,-5.856008126285423e-26,0.0015142445611133148,1.8021897170818305e-26,-3.880254466361607e-21,5.288554338474188e-43,0.0,0.0,0.0,3.729941116623645e-26,2.0042887576708067e-25,43.3168879453664,3.729941116623645e-26,1.0377429385339523e-22,43.3168879453664,-1.195761357213131e-24,1.6424207625542094e-22,1.8432802710294393e-43,21.6584439726832,21.6584439726832,2.7373679375903494e-22,8.610824307895913e-28,8.610824307895913e-28,21.6584439726832,21.6584439726832,2.7373679375903494e-22,8.610824307895913e-28,8.610824307895913e-28,-2.3957005864382727e-24,-2.3957005864382727e-24
1762666371.1793528,1.1368159890664061e-26,-5.0311380108698644e-29,1.0750022737744735,0.0,0.0,1.5,4.7815590162848084e-24,0.0,0.0,-1.9075242647181063e-26,-5.856008126285423e-26,0.0015142445611133148,1.8021897170818305e-26,-3.880254466361607e-21,5.288554338474188e-43,0.0,0.0,0.0,1.3391162701849032e-25,5.858523695291019e-25,43.3118461855165,1.3391162701849032e-25,2.0768400100982631e-22,43.3118461855165,-2.3916806030009452e-24,1.9401272331808036e-22,-2.6445568874250516e-44,21.65592309275825,21.65592309275825,3.233545388634673e-22,3.0918014079776267e-27,3.0918014079776267e-27,21.65592309275825,21.65592309275825,3.233545388634673e-22,3.0918014079776267e-27,3.0918014079776267e-27,-4.7950853935031736e-24,-4.7950853935031736e-24
1762666371.1809568,1.1368159890664061e-26,-5.0311380108698644e-29,1.0750022737744735,0.0,0.0,1.5,4.7815590162848084e-24,0.0,0.0,-1.9075242647181063e-26,-5.856008126285423e-26,0.0015142445611133148,1.8021897170818305e-26,-3.880254466361607e-21,5.288554338474188e-43,0.0,0.0,0.0,1.3391162701849032e-25,5.858523695291019e-25,43.3118461855165,1.3391162701849032e-25,2.0768400100982631e-22,43.3118461855165,-2.3916806030009452e-24,1.9401272331808036e-22,-2.6445568874250516e-44,21.65592309275825,21.65592309275825,3.233545388634673e-22,3.0918014079776267e-27,3.0918014079776267e-27,21.65592309275825,21.65592309275825,3.233545388634673e-22,3.0918014079776267e-27,3.0918014079776267e-27,-4.7950853935031736e-24,-4.7950853935031736e-24
1762666371.18242,1.1368159890664061e-26,-5.0311380108698644e-29,1.0750022737744735,0.0,0.0,1.5,4.7815590162848084e-24,0.0,0.0,-1.9075242647181063e-26,-5.856008126285423e-26,0.0015142445611133148,1.8021897170818305e-26,-3.880254466361607e-21,5.288554338474188e-43,0.0,0.0,0.0,1.3391162701849032e-25,5.858523695291019e-25,43.3118461855165,1.3391162701849032e-25,2.0768400100982631e-22,43.3118461855165,-2.3916806030009452e-24,1.9401272331808036e-22,-2.6445568874250516e-44,21.65592309275825,21.65592309275825,3.233545388634673e-22,3.0918014079776267e-27,3.0918014079776267e-27,21.65592309275825,21.65592309275825,3.233545388634673e-22,3.0918014079776267e-27,3.0918014079776267e-27,-4.7950853935031736e-24,-4.7950853935031736e-24
1762666371.1838036,1.1368159890664061e-26,-5.0311380108698644e-29,1.0750022737744735,0.0,0.0,1.5,4.7815590162848084e-24,0.0,0.0,-1.9075242647181063e-26,-5.856008126285423e-26,0.0015142445611133148,1.8021897170818305e-26,-3.880254466361607e-21,5.288554338474188e-43,0.0,0.0,0.0,1.3391162701849032e-25,5.858523695291019e-25,43.3118461855165,1.3391162701849032e-25,2.0768400100982631e-22,43.3118461855165,-2.3916806030009452e-24,1.9401272331808036e-22,-2.6445568874250516e-44,21.65592309275825,21.65592309275825,3.233545388634673e-22,3.0918014079776267e-27,3.0918014079776267e-27,21.65592309275825,21.65592309275825,3.233545388634673e-22,3.0918014079776267e-27,3.0918014079776267e-27,-4.7950853935031736e-24,-4.7950853935031736e-24
1762666371.1850903,1.1368159890664061e-26,-5.0311380108698644e-29,1.0750022737744735,0.0,0.0,1.5,4.7815590162848084e-24,0.0,0.0,-1.9075242647181063e-26,-5.856008126285423e-26,0.0015142445611133148,1.8021897170818305e-26,-3.880254466361607e-21,5.288554338474188e-43,0.0,0.0,0.0,1.3391162701849032e-25,5.858523695291019e-25,43.3118461855165,1.3391162701849032e-25,2.0768400100982631e-22,43.3118461855165,-2.3916806030009452e-24,1.9401272331808036e-22,-2.6445568874250516e-44,21.65592309275825,21.65592309275825,3.233545388634673e-22,3.0918014079776267e-27,3.0918014079776267e-27,21.65592309275825,21.65592309275825,3.233545388634673e-22,3.0918014079776267e-27,3.0918014079776267e-27,-4.7950853935031736e-24,-4.7950853935031736e-24
1762666371.1863859,1.1368159890664061e-26,-5.0311380108698644e-29,1.0750022737744735,0.0,0.0,1.5,4.7815590162848084e-24,0.0,0.0,-1.9075242647181063e-26,-5.856008126285423e-26,0.0015142445611133148,1.8021897170818305e-26,-3.880254466361607e-21,5.288554338474188e-43,0.0,0.0,0.0,1.3391162701849032e-25,5.858523695291019e-25,43.3118461855165,1.3391162701849032e-25,2.0768400100982631e-22,43.3118461855165,-2.3916806030009452e-24,1.9401272331808036e-22,-2.6445568874250516e-44,21.65592309275825,21.65592309275825,3.233545388634673e-22,3.0918014079776267e-27,3.0918014079776267e-27,21.65592309275825,21.65592309275825,3.233545388634673e-22,3.0918014079776267e-27,3.0918014079776267e-27,-4.7950853935031736e-24,-4.7950853935031736e-24
1762666371.1878502,1.1368159890664061e-26,-5.0311380108698644e-29,1.0750022737744735,0.0,0.0,1.5,4.7815590162848084e-24,0.0,0.0,-1.9075242647181063e-26,-5.856008126285423e-26,0.0015142445611133148,1.8021897170818305e-26,-3.880254466361607e-21,5.288554338474188e-43,0.0,0.0,0.0,1.3391162701849032e-25,5.858523695291019e-25,43.3118461855165,1.3391162701849032e-25,2.0768400100982631e-22,43.3118461855165,-2.3916806030009452e-24,1.9401272331808036e-22,-2.6445568874250516e-44,21.65592309275825,21.65592309275825,3.233545388634673e-22,3.0918014079776267e-27,3.0918014079776267e-27,21.65592309275825,21.65592309275825,3.233545388634673e-22,3.0918014079776267e-27,3.0918014079776267e-27,-4.7950853935031736e-24,-4.7950853935031736e-24
1762666371.1894057,1.1368159890664061e-26,-5.0311380108698644e-29,1.0750022737744735,0.0,0.0,1.5,4.7815590162848084e-24,0.0,0.0,-1.9075242647181063e-26,-5.856008126285423e-26,0.0015142445611133148,1.8021897170818305e-26,-3.880254466361607e-21,5.288554338474188e-43,0.0,0.0,0.0,1.3391162701849032e-25,5.858523695291019e-25,43.3118461855165,1.3391162701849032e-25,2.0768400100982631e-22,43.3118461855165,-2.3916806030009452e-24,1.9401272331808036e-22,-2.6445568874250516e-44,21.65592309275825,21.65592309275825,3.233545388634673e-22,3.0918014079776267e-27,3.0918014079776267e-27,21.65592309275825,21.65592309275825,3.233545388634673e-22,3.0918014079776267e-27,3.0918014079776267e-27,-4.7950853935031736e-24,-4.7950853935031736e-24
1762666371.190844,1.1368159890664061e-26,-5.0311380108698644e-29,1.0750022737744735,0.0,0.0,1.5,4.7815590162848084e-24,0.0,0.0,-1.9075242647181063e-26,-5.856008126285423e-26,0.0015142445611133148,1.8021897170818305e-26,-3.880254466361607e-21,5.288554338474188e-43,0.0,0.0,0.0,1.3391162701849032e-25,5.858523695291019e-25,43.3118461855165,1.3391162701849032e-25,2.0768400100982631e-22,43.3118461855165,-2.3916806030009452e-24,1.9401272331808036e-22,-2.6445568874250516e-44,21.65592309275825,21.65592309275825,3.233545388634673e-22,3.0918014079776267e-27,3.0918014079776267e-27,21.65592309275825,21.65592309275825,3.233545388634673e-22,3.0918014079776267e-27,3.0918014079776267e-27,-4.7950853935031736e-24,-4.7950853935031736e-24
1762666371.1922092,1.1368159890664061e-26,-5.0311380108698644e-29,1.0750022737744735,0.0,0.0,1.5,4.7815590162848084e-24,0.0,0.0,-1.9075242647181063e-26,-5.856008126285423e-26,0.0015142445611133148,1.8021897170818305e-26,-3.880254466361607e-21,5.288554338474188e-43,0.0,0.0,0.0,1.3391162701849032e-25,5.858523695291019e-25,43.3118461855165,1.3391162701849032e-25,2.0768400100982631e-22,43.3118461855165,-2.3916806030009452e-24,1.9401272331808036e-22,-2.6445568874250516e-44,21.65592309275825,21.65592309275825,3.233545388634673e-22,3.0918014079776267e-27,3.0918014079776267e-27,21.65592309275825,21.65592309275825,3.233545388634673e-22,3.0918014079776267e-27,3.0918014079776267e-27,-4.7950853935031736e-24,-4.7950853935031736e-24
1762666371.1934915,1.1368159890664061e-26,-5.0311380108698644e-29,1.0750022737744735,0.0,0.0,1.5,4.7815590162848084e-24,0.0,0.0,-1.9075242647181063e-26,-5.856008126285423e-26,0.0015142445611133148,1.8021897170818305e-26,-3.880254466361607e-21,5.288554338474188e-43,0.0,0.0,0.0,1.3391162701849032e-25,5.858523695291019e-25,43.3118461855165,1.3391162701849032e-25,2.0768400100982631e-22,43.3118461855165,-2.3916806030009452e-24,1.9401272331808036e-22,-2.6445568874250516e-44,21.65592309275825,21.65592309275825,3.233545388634673e-22,3.0918014079776267e-27,3.0918014079776267e-27,21.65592309275825,21.65592309275825,3.233545388634673e-22,3.0918014079776267e-27,3.0918014079776267e-27,-4.7950853935031736e-24,-4.7950853935031736e-24
1762666371.1947315,1.1368159890664061e-26,-5.0311380108698644e-29,1.0750022737744735,0.0,0.0,1.5,4.7815590162848084e-24,0.0,0.0,-1.9075242647181063e-26,-5.856008126285423e-26,0.0015142445611133148,1.8021897170818305e-26,-3.880254466361607e-21,5.288554338474188e-43,0.0,0.0,0.0,1.3391162701849032e-25,5.858523695291019e-25,43.3118461855165,1.3391162701849032e-25,2.0768400100982631e-22,43.3118461855165,-2.3916806030009452e-24,1.9401272331808036e-22,-2.6445568874250516e-44,21.65592309275825,21.65592309275825,3.233545388634673e-22,3.0918014079776267e-27,3.0918014079776267e-27,21.65592309275825,21.65592309275825,3.233545388634673e-22,3.0918014079776267e-27,3.0918014079776267e-27,-4.7950853935031736e-24,-4.7950853935031736e-24
1762666371.1961443,1.1368159890664061e-26,-5.0311380108698644e-29,1.0750022737744735,0.0,0.0,1.5,4.7815590162848084e-24,0.0,0.0,-1.9075242647181063e-26,-5.856008126285423e-26,0.0015142445611133148,1.8021897170818305e-26,-3.880254466361607e-21,5.288554338474188e-43,0.0,0.0,0.0,1.3391162701849032e-25,5.858523695291019e-25,43.3118461855165,1.3391162701849032e-25,2.0768400100982631e-22,43.3118461855165,-2.3916806030009452e-24,1.9401272331808036e-22,-2.6445568874250516e-44,21.65592309275825,21.65592309275825,3.233545388634673e-22,3.0918014079776267e-27,3.0918014079776267e-27,21.65592309275825,21.65592309275825,3.233545388634673e-22,3.0918014079776267e-27,3.0918014079776267e-27,-4.7950853935031736e-24,-4.7950853935031736e-24
1762666371.1975594,1.1368159890664061e-26,-5.0311380108698644e-29,1.0750022737744735,0.0,0.0,1.5,4.7815590162848084e-24,0.0,0.0,-1.9075242647181063e-26,-5.856008126285423e-26,0.0015142445611133148,1.8021897170818305e-26,-3.880254466361607e-21,5.288554338474188e-43,0.0,0.0,0.0,1.3391162701849032e-25,5.858523695291019e-25,43.3118461855165,1.3391162701849032e-25,2.0768400100982631e-22,43.3118461855165,-2.3916806030009452e-24,1.9401272331808036e-22,-2.6445568874250516e-44,21.65592309275825,21.65592309275825,3.233545388634673e-22,3.0918014079776267e-27,3.0918014079776267e-27,21.65592309275825,21.65592309275825,3.233545388634673e-22,3.0918014079776267e-27,3.0918014079776267e-27,-4.7950853935031736e-24,-4.7950853935031736e-24
1762666371.198922,1.1368159890664061e-26,-5.0311380108698644e-29,1.0750022737744735,0.0,0.0,1.5,4.7815590162848084e-24,0.0,0.0,-1.9075242647181063e-26,-5.856008126285423e-26,0.0015142445611133148,1.8021897170818305e-26,-3.880254466361607e-21,5.288554338474188e-43,0.0,0.0,0.0,1.3391162701849032e-25,5.858523695291019e-25,43.3118461855165,1.3391162701849032e-25,2.0768400100982631e-22,43.3118461855165,-2.3916806030009452e-24,1.9401272331808036e-22,-2.6445568874250516e-44,21.65592309275825,21.65592309275825,3.233545388634673e-22,3.0918014079776267e-27,3.0918014079776267e-27,21.65592309275825,21.65592309275825,3.233545388634673e-22,3.0918014079776267e-27,3.0918014079776267e-27,-4.7950853935031736e-24,-4.7950853935031736e-24
1762666371.200311,1.1368159890664061e-26,-5.0311380108698644e-29,1.0750022737744735,0.0,0.0,1.5,4.7815590162848084e-24,0.0,0.0,-1.9075242647181063e-26,-5.856008126285423e-26,0.0015142445611133148,1.8021897170818305e-26,-3.880254466361607e-21,5.288554338474188e-43,0.0,0.0,0.0,1.3391162701849032e-25,5.858523695291019e-25,43.3118461855165,1.3391162701849032e-25,2.0768400100982631e-22,43.3118461855165,-2.3916806030009452e-24,1.9401272331808036e-22,-2.6445568874250516e-44,21.65592309275825,21.65592309275825,3.233545388634673e-22,3.0918014079776267e-27,3.0918014079776267e-27,21.65592309275825,21.65592309275825,3.233545388634673e-22,3.0918014079776267e-27,3.0918014079776267e-27,-4.7950853935031736e-24,-4.7950853935031736e-24
1762666371.201554,1.1368159890664061e-26,-5.0311380108698644e-29,1.0750022737744735,0.0,0.0,1.5,4.7815590162848084e-24,0.0,0.0,-1.9075242647181063e-26,-5.856008126285423e-26,0.0015142445611133148,1.8021897170818305e-26,-3.880254466361607e-21,5.288554338474188e-43,0.0,0.0,0.0,1.3391162701849032e-25,5.858523695291019e-25,43.3118461855165,1.3391162701849032e-25,2.0768400100982631e-22,43.3118461855165,-2.3916806030009452e-24,1.9401272331808036e-22,-2.6445568874250516e-44,21.65592309275825,21.65592309275825,3.233545388634673e-22,3.0918014079776267e-27,3.0918014079776267e-27,21.65592309275825,21.65592309275825,3.233545388634673e-22,3.0918014079776267e-27,3.0918014079776267e-27,-4.7950853935031736e-24,-4.7950853935031736e-24
1762666371.2027807,1.1368159890664061e-26,-5.0311380108698644e-29,1.0750022737744735,0.0,0.0,1.5,4.7815590162848084e-24,0.0,0.0,-1.9075242647181063e-26,-5.856008126285423e-26,0.0015142445611133148,1.8021897170818305e-26,-3.880254466361607e-21,5.288554338474188e-43,0.0,0.0,0.0,1.3391162701849032e-25,5.858523695291019e-25,43.3118461855165,1.3391162701849032e-25,2.0768400100982631e-22,43.3118461855165,-2.3916806030009452e-24,1.9401272331808036e-22,-2.6445568874250516e-44,21.65592309275825,21.65592309275825,3.233545388634673e-22,3.0918014079776267e-27,3.0918014079776267e-27,21.65592309275825,21.65592309275825,3.233545388634673e-22,3.0918014079776267e-27,3.0918014079776267e-27,-4.7950853935031736e-24,-4.7950853935031736e-24
1762666371.2042303,1.1368159890664061e-26,-5.0311380108698644e-29,1.0750022737744735,0.0,0.0,1.5,4.7815590162848084e-24,0.0,0.0,-1.9075242647181063e-26,-5.856008126285423e-26,0.0015142445611133148,1.8021897170818305e-26,-3.880254466361607e-21,5.288554338474188e-43,0.0,0.0,0.0,1.3391162701849032e-25,5.858523695291019e-25,43.3118461855165,1.3391162701849032e-25,2.0768400100982631e-22,43.3118461855165,-2.3916806030009452e-24,1.9401272331808036e-22,-2.6445568874250516e-44,21.65592309275825,21.65592309275825,3.233545388634673e-22,3.0918014079776267e-27,3.0918014079776267e-27,21.65592309275825,21.65592309275825,3.233545388634673e-22,3.0918014079776267e-27,3.0918014079776267e-27,-4.7950853935031736e-24,-4.7950853935031736e-24
1762666371.205722,1.1368159890664061e-26,-5.0311380108698644e-29,1.0750022737744735,0.0,0.0,1.5,4.7815590162848084e-24,0.0,0.0,-1.9075242647181063e-26,-5.856008126285423e-26,0.0015142445611133148,1.8021897170818305e-26,-3.880254466361607e-21,5.288554338474188e-43,0.0,0.0,0.0,1.3391162701849032e-25,5.858523695291019e-25,43.3118461855165,1.3391162701849032e-25,2.0768400100982631e-22,43.3118461855165,-2.3916806030009452e-24,1.9401272331808036e-22,-2.6445568874250516e-44,21.65592309275825,21.65592309275825,3.233545388634673e-22,3.0918014079776267e-27,3.0918014079776267e-27,21.65592309275825,21.65592309275825,3.233545388634673e-22,3.0918014079776267e-27,3.0918014079776267e-27,-4.7950853935031736e-24,-4.7950853935031736e-24
1762666371.2071826,1.1368159890664061e-26,-5.0311380108698644e-29,1.0750022737744735,0.0,0.0,1.5,4.7815590162848084e-24,0.0,0.0,-1.9075242647181063e-26,-5.856008126285423e-26,0.0015142445611133148,1.8021897170818305e-26,-3.880254466361607e-21,5.288554338474188e-43,0.0,0.0,0.0,1.3391162701849032e-25,5.858523695291019e-25,43.3118461855165,1.3391162701849032e-25,2.0768400100982631e-22,43.3118461855165,-2.3916806030009452e-24,1.9401272331808036e-22,-2.6445568874250516e-44,21.65592309275825,21.65592309275825,3.233545388634673e-22,3.0918014079776267e-27,3.0918014079776267e-27,21.65592309275825,21.65592309275825,3.233545388634673e-22,3.0918014079776267e-27,3.0918014079776267e-27,-4.7950853935031736e-24,-4.7950853935031736e-24
1762666371.20854,1.1368159890664061e-26,-5.0311380108698644e-29,1.0750022737744735,0.0,0.0,1.5,4.7815590162848084e-24,0.0,0.0,-1.9075242647181063e-26,-5.856008126285423e-26,0.0015142445611133148,1.8021897170818305e-26,-3.880254466361607e-21,5.288554338474188e-43,0.0,0.0,0.0,1.3391162701849032e-25,5.858523695291019e-25,43.3118461855165,1.3391162701849032e-25,2.0768400100982631e-22,43.3118461855165,-2.3916806030009452e-24,1.9401272331808036e-22,-2.6445568874250516e-44,21.65592309275825,21.65592309275825,3.233545388634673e-22,3.0918014079776267e-27,3.0918014079776267e-27,21.65592309275825,21.65592309275825,3.233545388634673e-22,3.0918014079776267e-27,3.0918014079776267e-27,-4.7950853935031736e-24,-4.7950853935031736e-24
1762666371.2098145,1.1368159890664061e-26,-5.0311380108698644e-29,1.0750022737744735,0.0,0.0,1.5,4.7815590162848084e-24,0.0,0.0,-1.9075242647181063e-26,-5.856008126285423e-26,0.0015142445611133148,1.8021897170818305e-26,-3.880254466361607e-21,5.288554338474188e-43,0.0,0.0,0.0,1.3391162701849032e-25,5.858523695291019e-25,43.3118461855165,1.3391162701849032e-25,2.0768400100982631e-22,43.3118461855165,-2.3916806030009452e-24,1.9401272331808036e-22,-2.6445568874250516e-44,21.65592309275825,21.65592309275825,3.233545388634673e-22,3.0918014079776267e-27,3.0918014079776267e-27,21.65592309275825,21.65592309275825,3.233545388634673e-22,3.0918014079776267e-27,3.0918014079776267e-27,-4.7950853935031736e-24,-4.7950853935031736e-24
1762666371.2110744,1.1368159890664061e-26,-5.0311380108698644e-29,1.0750022737744735,0.0,0.0,1.5,4.7815590162848084e-24,0.0,0.0,-1.9075242647181063e-26,-5.856008126285423e-26,0.0015142445611133148,1.8021897170818305e-26,-3.880254466361607e-21,5.288554338474188e-43,0.0,0.0,0.0,1.3391162701849032e-25,5.858523695291019e-25,43.3118461855165,1.3391162701849032e-25,2.0768400100982631e-22,43.3118461855165,-2.3916806030009452e-24,1.9401272331808036e-22,-2.6445568874250516e-44,21.65592309275825,21.65592309275825,3.233545388634673e-22,3.0918014079776267e-27,3.0918014079776267e-27,21.65592309275825,21.65592309275825,3.233545388634673e-22,3.0918014079776267e-27,3.0918014079776267e-27,-4.7950853935031736e-24,-4.7950853935031736e-24
1762666371.2123904,1.1368159890664061e-26,-5.0311380108698644e-29,1.0750022737744735,0.0,0.0,1.5,4.7815590162848084e-24,0.0,0.0,-1.9075242647181063e-26,-5.856008126285423e-26,0.0015142445611133148,1.8021897170818305e-26,-3.880254466361607e-21,5.288554338474188e-43,0.0,0.0,0.0,1.3391162701849032e-25,5.858523695291019e-25,43.3118461855165,1.3391162701849032e-25,2.0768400100982631e-22,43.3118461855165,-2.3916806030009452e-24,1.9401272331808036e-22,-2.6445568874250516e-44,21.65592309275825,21.65592309275825,3.233545388634673e-22,3.0918014079776267e-27,3.0918014079776267e-27,21.65592309275825,21.65592309275825,3.233545388634673e-22,3.0918014079776267e-27,3.0918014079776267e-27,-4.7950853935031736e-24,-4.7950853935031736e-24
1762666371.213884,1.1368159890664061e-26,-5.0311380108698644e-29,1.0750022737744735,0.0,0.0,1.5,4.7815590162848084e-24,0.0,0.0,-1.9075242647181063e-26,-5.856008126285423e-26,0.0015142445611133148,1.8021897170818305e-26,-3.880254466361607e-21,5.288554338474188e-43,0.0,0.0,0.0,1.3391162701849032e-25,5.858523695291019e-25,43.3118461855165,1.3391162701849032e-25,2.0768400100982631e-22,43.3118461855165,-2.3916806030009452e-24,1.9401272331808036e-22,-2.6445568874250516e-44,21.65592309275825,21.65592309275825,3.233545388634673e-22,3.0918014079776267e-27,3.0918014079776267e-27,21.65592309275825,21.65592309275825,3.233545388634673e-22,3.0918014079776267e-27,3.0918014079776267e-27,-4.7950853935031736e-24,-4.7950853935031736e-24
1762666371.2153451,1.1368159890664061e-26,-5.0311380108698644e-29,1.0750022737744735,0.0,0.0,1.5,4.7815590162848084e-24,0.0,0.0,-1.9075242647181063e-26,-5.856008126285423e-26,0.0015142445611133148,1.8021897170818305e-26,-3.880254466361607e-21,5.288554338474188e-43,0.0,0.0,0.0,1.3391162701849032e-25,5.858523695291019e-25,43.3118461855165,1.3391162701849032e-25,2.0768400100982631e-22,43.3118461855165,-2.3916806030009452e-24,1.9401272331808036e-22,-2.6445568874250516e-44,21.65592309275825,21.65592309275825,3.233545388634673e-22,3.0918014079776267e-27,3.0918014079776267e-27,21.65592309275825,21.65592309275825,3.233545388634673e-22,3.0918014079776267e-27,3.0918014079776267e-27,-4.7950853935031736e-24,-4.7950853935031736e-24
1762666371.2166796,1.1368159890664061e-26,-5.0311380108698644e-29,1.0750022737744735,0.0,0.0,1.5,4.7815590162848084e-24,0.0,0.0,-1.9075242647181063e-26,-5.856008126285423e-26,0.0015142445611133148,1.8021897170818305e-26,-3.880254466361607e-21,5.288554338474188e-43,0.0,0.0,0.0,1.3391162701849032e-25,5.858523695291019e-25,43.3118461855165,1.3391162701849032e-25,2.0768400100982631e-22,43.3118461855165,-2.3916806030009452e-24,1.9401272331808036e-22,-2.6445568874250516e-44,21.65592309275825,21.65592309275825,3.233545388634673e-22,3.0918014079776267e-27,3.0918014079776267e-27,21.65592309275825,21.65592309275825,3.233545388634673e-22,3.0918014079776267e-27,3.0918014079776267e-27,-4.7950853935031736e-24,-4.7950853935031736e-24
1762666371.217963,1.1368159890664061e-26,-5.0311380108698644e-29,1.0750022737744735,0.0,0.0,1.5,4.7815590162848084e-24,0.0,0.0,-1.9075242647181063e-26,-5.856008126285423e-26,0.0015142445611133148,1.8021897170818305e-26,-3.880254466361607e-21,5.288554338474188e-43,0.0,0.0,0.0,1.3391162701849032e-25,5.858523695291019e-25,43.3118461855165,1.3391162701849032e-25,2.0768400100982631e-22,43.3118461855165,-2.3916806030009452e-24,1.9401272331808036e-22,-2.6445568874250516e-44,21.65592309275825,21.65592309275825,3.233545388634673e-22,3.0918014079776267e-27,3.0918014079776267e-27,21.65592309275825,21.65592309275825,3.233545388634673e-22,3.0918014079776267e-27,3.0918014079776267e-27,-4.7950853935031736e-24,-4.7950853935031736e-24
1762666371.2192388,1.1368159890664061e-26,-5.0311380108698644e-29,1.0750022737744735,0.0,0.0,1.5,4.7815590162848084e-24,0.0,0.0,-1.9075242647181063e-26,-5.856008126285423e-26,0.0015142445611133148,1.8021897170818305e-26,-3.880254466361607e-21,5.288554338474188e-43,0.0,0.0,0.0,1.3391162701849032e-25,5.858523695291019e-25,43.3118461855165,1.3391162701849032e-25,2.0768400100982631e-22,43.3118461855165,-2.3916806030009452e-24,1.9401272331808036e-22,-2.6445568874250516e-44,21.65592309275825,21.65592309275825,3.233545388634673e-22,3.0918014079776267e-27,3.0918014079776267e-27,21.65592309275825,21.65592309275825,3.233545388634673e-22,3.0918014079776267e-27,3.0918014079776267e-27,-4.7950853935031736e-24,-4.7950853935031736e-24
1762666371.220588,1.1368159890664061e-26,-5.0311380108698644e-29,1.0750022737744735,0.0,0.0,1.5,4.7815590162848084e-24,0.0,0.0,-1.9075242647181063e-26,-5.856008126285423e-26,0.0015142445611133148,1.8021897170818305e-26,-3.880254466361607e-21,5.288554338474188e-43,0.0,0.0,0.0,1.3391162701849032e-25,5.858523695291019e-25,43.3118461855165,1.3391162701849032e-25,2.0768400100982631e-22,43.3118461855165,-2.3916806030009452e-24,1.9401272331808036e-22,-2.6445568874250516e-44,21.65592309275825,21.65592309275825,3.233545388634673e-22,3.0918014079776267e-27,3.0918014079776267e-27,21.65592309275825,21.65592309275825,3.233545388634673e-22,3.0918014079776267e-27,3.0918014079776267e-27,-4.7950853935031736e-24,-4.7950853935031736e-24
1762666371.2220848,1.1368159890664061e-26,-5.0311380108698644e-29,1.0750022737744735,0.0,0.0,1.5,4.7815590162848084e-24,0.0,0.0,-1.9075242647181063e-26,-5.856008126285423e-26,0.0015142445611133148,1.8021897170818305e-26,-3.880254466361607e-21,5.288554338474188e-43,0.0,0.0,0.0,1.3391162701849032e-25,5.858523695291019e-25,43.3118461855165,1.3391162701849032e-25,2.0768400100982631e-22,43.3118461855165,-2.3916806030009452e-24,1.9401272331808036e-22,-2.6445568874250516e-44,21.65592309275825,21.65592309275825,3.233545388634673e-22,3.0918014079776267e-27,3.0918014079776267e-27,21.65592309275825,21.65592309275825,3.233545388634673e-22,3.0918014079776267e-27,3.0918014079776267e-27,-4.7950853935031736e-24,-4.7950853935031736e-24
1762666371.223645,1.1368159890664061e-26,-5.0311380108698644e-29,1.0750022737744735,0.0,0.0,1.5,4.7815590162848084e-24,0.0,0.0,-1.9075242647181063e-26,-5.856008126285423e-26,0.0015142445611133148,1.8021897170818305e-26,-3.880254466361607e-21,5.288554338474188e-43,0.0,0.0,0.0,1.3391162701849032e-25,5.858523695291019e-25,43.3118461855165,1.3391162701849032e-25,2.0768400100982631e-22,43.3118461855165,-2.3916806030009452e-24,1.9401272331808036e-22,-2.6445568874250516e-44,21.65592309275825,21.65592309275825,3.233545388634673e-22,3.0918014079776267e-27,3.0918014079776267e-27,21.65592309275825,21.65592309275825,3.233545388634673e-22,3.0918014079776267e-27,3.0918014079776267e-27,-4.7950853935031736e-24,-4.7950853935031736e-24
1762666371.2254114,1.1368159890664061e-26,-5.0311380108698644e-29,1.0750022737744735,0.0,0.0,1.5,4.7815590162848084e-24,0.0,0.0,-1.9075242647181063e-26,-5.856008126285423e-26,0.0015142445611133148,1.8021897170818305e-26,-3.880254466361607e-21,5.288554338474188e-43,0.0,0.0,0.0,1.3391162701849032e-25,5.858523695291019e-25,43.3118461855165,1.3391162701849032e-25,2.0768400100982631e-22,43.3118461855165,-2.3916806030009452e-24,1.9401272331808036e-22,-2.6445568874250516e-44,21.65592309275825,21.65592309275825,3.233545388634673e-22,3.0918014079776267e-27,3.0918014079776267e-27,21.65592309275825,21.65592309275825,3.233545388634673e-22,3.0918014079776267e-27,3.0918014079776267e-27,-4.7950853935031736e-24,-4.7950853935031736e-24
1762666371.226984,1.1368159890664061e-26,-5.0311380108698644e-29,1.0750022737744735,0.0,0.0,1.5,4.7815590162848084e-24,0.0,0.0,-1.9075242647181063e-26,-5.856008126285423e-26,0.0015142445611133148,1.8021897170818305e-26,-3.880254466361607e-21,5.288554338474188e-43,0.0,0.0,0.0,1.3391162701849032e-25,5.858523695291019e-25,43.3118461855165,1.3391162701849032e-25,2.0768400100982631e-22,43.3118461855165,-2.3916806030009452e-24,1.9401272331808036e-22,-2.6445568874250516e-44,21.65592309275825,21.65592309275825,3.233545388634673e-22,3.0918014079776267e-27,3.0918014079776267e-27,21.65592309275825,21.65592309275825,3.233545388634673e-22,3.0918014079776267e-27,3.0918014079776267e-27,-4.7950853935031736e-24,-4.7950853935031736e-24
1762666371.2286358,1.1368159890664061e-26,-5.0311380108698644e-29,1.0750022737744735,0.0,0.0,1.5,4.7815590162848084e-24,0.0,0.0,-1.9075242647181063e-26,-5.856008126285423e-26,0.0015142445611133148,1.8021897170818305e-26,-3.880254466361607e-21,5.288554338474188e-43,0.0,0.0,0.0,1.3391162701849032e-25,5.858523695291019e-25,43.3118461855165,1.3391162701849032e-25,2.0768400100982631e-22,43.3118461855165,-2.3916806030009452e-24,1.9401272331808036e-22,-2.6445568874250516e-44,21.65592309275825,21.65592309275825,3.233545388634673e-22,3.0918014079776267e-27,3.0918014079776267e-27,21.65592309275825,21.65592309275825,3.233545388634673e-22,3.0918014079776267e-27,3.0918014079776267e-27,-4.7950853935031736e-24,-4.7950853935031736e-24
1762666371.230628,1.1368159890664061e-26,-5.0311380108698644e-29,1.0750022737744735,0.0,0.0,1.5,4.7815590162848084e-24,0.0,0.0,-1.9075242647181063e-26,-5.856008126285423e-26,0.0015142445611133148,1.8021897170818305e-26,-3.880254466361607e-21,5.288554338474188e-43,0.0,0.0,0.0,1.3391162701849032e-25,5.858523695291019e-25,43.3118461855165,1.3391162701849032e-25,2.0768400100982631e-22,43.3118461855165,-2.3916806030009452e-24,1.9401272331808036e-22,-2.6445568874250516e-44,21.65592309275825,21.65592309275825,3.233545388634673e-22,3.0918014079776267e-27,3.0918014079776267e-27,21.65592309275825,21.65592309275825,3.233545388634673e-22,3.0918014079776267e-27,3.0918014079776267e-27,-4.7950853935031736e-24,-4.7950853935031736e-24
1762666371.2323148,1.1368159890664061e-26,-5.0311380108698644e-29,1.0750022737744735,0.0,0.0,1.5,4.7815590162848084e-24,0.0,0.0,-1.9075242647181063e-26,-5.856008126285423e-26,0.0015142445611133148,1.8021897170818305e-26,-3.880254466361607e-21,5.288554338474188e-43,0.0,0.0,0.0,1.3391162701849032e-25,5.858523695291019e-25,43.3118461855165,1.3391162701849032e-25,2.0768400100982631e-22,43.3118461855165,-2.3916806030009452e-24,1.9401272331808036e-22,-2.6445568874250516e-44,21.65592309275825,21.65592309275825,3.233545388634673e-22,3.0918014079776267e-27,3.0918014079776267e-27,21.65592309275825,21.65592309275825,3.233545388634673e-22,3.0918014079776267e-27,3.0918014079776267e-27,-4.7950853935031736e-24,-4.7950853935031736e-24
1762666371.2340677,1.1368159890664061e-26,-5.0311380108698644e-29,1.0750022737744735,0.0,0.0,1.5,4.7815590162848084e-24,0.0,0.0,-1.9075242647181063e-26,-5.856008126285423e-26,0.0015142445611133148,1.8021897170818305e-26,-3.880254466361607e-21,5.288554338474188e-43,0.0,0.0,0.0,1.3391162701849032e-25,5.858523695291019e-25,43.3118461855165,1.3391162701849032e-25,2.0768400100982631e-22,43.3118461855165,-2.3916806030009452e-24,1.9401272331808036e-22,-2.6445568874250516e-44,21.65592309275825,21.65592309275825,3.233545388634673e-22,3.0918014079776267e-27,3.0918014079776267e-27,21.65592309275825,21.65592309275825,3.233545388634673e-22,3.0918014079776267e-27,3.0918014079776267e-27,-4.7950853935031736e-24,-4.7950853935031736e-24
1762666371.235502,1.1368159890664061e-26,-5.0311380108698644e-29,1.0750022737744735,0.0,0.0,1.5,4.7815590162848084e-24,0.0,0.0,-1.9075242647181063e-26,-5.856008126285423e-26,0.0015142445611133148,1.8021897170818305e-26,-3.880254466361607e-21,5.288554338474188e-43,0.0,0.0,0.0,1.3391162701849032e-25,5.858523695291019e-25,43.3118461855165,1.3391162701849032e-25,2.0768400100982631e-22,43.3118461855165,-2.3916806030009452e-24,1.9401272331808036e-22,-2.6445568874250516e-44,21.65592309275825,21.65592309275825,3.233545388634673e-22,3.0918014079776267e-27,3.0918014079776267e-27,21.65592309275825,21.65592309275825,3.233545388634673e-22,3.0918014079776267e-27,3.0918014079776267e-27,-4.7950853935031736e-24,-4.7950853935031736e-24
1762666371.2368937,1.1368159890664061e-26,-5.0311380108698644e-29,1.0750022737744735,0.0,0.0,1.5,4.7815590162848084e-24,0.0,0.0,-1.9075242647181063e-26,-5.856008126285423e-26,0.0015142445611133148,1.8021897170818305e-26,-3.880254466361607e-21,5.288554338474188e-43,0.0,0.0,0.0,1.3391162701849032e-25,5.858523695291019e-25,43.3118461855165,1.3391162701849032e-25,2.0768400100982631e-22,43.3118461855165,-2.3916806030009452e-24,1.9401272331808036e-22,-2.6445568874250516e-44,21.65592309275825,21.65592309275825,3.233545388634673e-22,3.0918014079776267e-27,3.0918014079776267e-27,21.65592309275825,21.65592309275825,3.233545388634673e-22,3.0918014079776267e-27,3.0918014079776267e-27,-4.7950853935031736e-24,-4.7950853935031736e-24
1762666371.2387185,1.1368159890664061e-26,-5.0311380108698644e-29,1.0750022737744735,0.0,0.0,1.5,4.7815590162848084e-24,0.0,0.0,-1.9075242647181063e-26,-5.856008126285423e-26,0.0015142445611133148,1.8021897170818305e-26,-3.880254466361607e-21,5.288554338474188e-43,0.0,0.0,0.0,1.3391162701849032e-25,5.858523695291019e-25,43.3118461855165,1.3391162701849032e-25,2.0768400100982631e-22,43.3118461855165,-2.3916806030009452e-24,1.9401272331808036e-22,-2.6445568874250516e-44,21.65592309275825,21.65592309275825,3.233545388634673e-22,3.0918014079776267e-27,3.0918014079776267e-27,21.65592309275825,21.65592309275825,3.233545388634673e-22,3.0918014079776267e-27,3.0918014079776267e-27,-4.7950853935031736e-24,-4.7950853935031736e-24
1762666371.240522,1.1368159890664061e-26,-5.0311380108698644e-29,1.0750022737744735,0.0,0.0,1.5,4.7815590162848084e-24,0.0,0.0,-1.9075242647181063e-26,-5.856008126285423e-26,0.0015142445611133148,1.8021897170818305e-26,-3.880254466361607e-21,5.288554338474188e-43,0.0,0.0,0.0,1.3391162701849032e-25,5.858523695291019e-25,43.3118461855165,1.3391162701849032e-25,2.0768400100982631e-22,43.3118461855165,-2.3916806030009452e-24,1.9401272331808036e-22,-2.6445568874250516e-44,21.65592309275825,21.65592309275825,3.233545388634673e-22,3.0918014079776267e-27,3.0918014079776267e-27,21.65592309275825,21.65592309275825,3.233545388634673e-22,3.0918014079776267e-27,3.0918014079776267e-27,-4.7950853935031736e-24,-4.7950853935031736e-24
1762666371.2421155,1.1368159890664061e-26,-5.0311380108698644e-29,1.0750022737744735,0.0,0.0,1.5,4.7815590162848084e-24,0.0,0.0,-1.9075242647181063e-26,-5.856008126285423e-26,0.0015142445611133148,1.8021897170818305e-26,-3.880254466361607e-21,5.288554338474188e-43,0.0,0.0,0.0,1.3391162701849032e-25,5.858523695291019e-25,43.3118461855165,1.3391162701849032e-25,2.0768400100982631e-22,43.3118461855165,-2.3916806030009452e-24,1.9401272331808036e-22,-2.6445568874250516e-44,21.65592309275825,21.65592309275825,3.233545388634673e-22,3.0918014079776267e-27,3.0918014079776267e-27,21.65592309275825,21.65592309275825,3.233545388634673e-22,3.0918014079776267e-27,3.0918014079776267e-27,-4.7950853935031736e-24,-4.7950853935031736e-24
1762666371.2434442,1.1368159890664061e-26,-5.0311380108698644e-29,1.0750022737744735,0.0,0.0,1.5,4.7815590162848084e-24,0.0,0.0,-1.9075242647181063e-26,-5.856008126285423e-26,0.0015142445611133148,1.8021897170818305e-26,-3.880254466361607e-21,5.288554338474188e-43,0.0,0.0,0.0,1.3391162701849032e-25,5.858523695291019e-25,43.3118461855165,1.3391162701849032e-25,2.0768400100982631e-22,43.3118461855165,-2.3916806030009452e-24,1.9401272331808036e-22,-2.6445568874250516e-44,21.65592309275825,21.65592309275825,3.233545388634673e-22,3.0918014079776267e-27,3.0918014079776267e-27,21.65592309275825,21.65592309275825,3.233545388634673e-22,3.0918014079776267e-27,3.0918014079776267e-27,-4.7950853935031736e-24,-4.7950853935031736e-24
1762666371.2447934,1.1368159890664061e-26,-5.0311380108698644e-29,1.0750022737744735,0.0,0.0,1.5,4.7815590162848084e-24,0.0,0.0,-1.9075242647181063e-26,-5.856008126285423e-26,0.0015142445611133148,1.8021897170818305e-26,-3.880254466361607e-21,5.288554338474188e-43,0.0,0.0,0.0,1.3391162701849032e-25,5.858523695291019e-25,43.3118461855165,1.3391162701849032e-25,2.0768400100982631e-22,43.3118461855165,-2.3916806030009452e-24,1.9401272331808036e-22,-2.6445568874250516e-44,21.65592309275825,21.65592309275825,3.233545388634673e-22,3.0918014079776267e-27,3.0918014079776267e-27,21.65592309275825,21.65592309275825,3.233545388634673e-22,3.0918014079776267e-27,3.0918014079776267e-27,-4.7950853935031736e-24,-4.7950853935031736e-24
1762666371.246371,1.1368159890664061e-26,-5.0311380108698644e-29,1.0750022737744735,0.0,0.0,1.5,4.7815590162848084e-24,0.0,0.0,-1.9075242647181063e-26,-5.856008126285423e-26,0.0015142445611133148,1.8021897170818305e-26,-3.880254466361607e-21,5.288554338474188e-43,0.0,0.0,0.0,1.3391162701849032e-25,5.858523695291019e-25,43.3118461855165,1.3391162701849032e-25,2.0768400100982631e-22,43.3118461855165,-2.3916806030009452e-24,1.9401272331808036e-22,-2.6445568874250516e-44,21.65592309275825,21.65592309275825,3.233545388634673e-22,3.0918014079776267e-27,3.0918014079776267e-27,21.65592309275825,21.65592309275825,3.233545388634673e-22,3.0918014079776267e-27,3.0918014079776267e-27,-4.7950853935031736e-24,-4.7950853935031736e-24
