timestamp,pos_x,pos_y,pos_z,target_x,target_y,target_z,roll,pitch,yaw,vel_x,vel_y,vel_z,angular_vel_x,angular_vel_y,angular_vel_z,accel_x,accel_y,accel_z,f_world_x,f_world_y,f_world_z,f_body_x,f_body_y,f_body_z,tau_x,tau_y,tau_z,u1,u2,u3,u4,u5,T12,T34,T5,alpha1,alpha2theta1,theta2
1762691369.833913,0.0,0.0,0.075,3.0,0.0,1.5,0.0,0.0,0.0,0.0,0.0,0.0,0.0,0.0,0.0,0.0,0.0,0.0,0.0,0.0,0.0,0.0,0.0,0.0,0.0,0.0,0.0,0.0,0.0,0.0,0.0,0.0,0.0,0.0,0.0,0.0,0.0,0.0,0.0
1762691369.8358262,0.0,0.0,0.075,3.0,0.0,1.5,0.0,0.0,0.0,0.0,0.0,0.0,0.0,0.0,0.0,0.0,0.0,0.0,15.0,0.0,48.327000000000005,15.0,0.0,48.327000000000005,0.0,0.0,0.0,25.300686398791637,25.300686398791637,0.0,0.30095733206991737,0.30095733206991737,25.300686398791637,25.300686398791637,0.0,0.30095733206991737,0.30095733206991737,-0.0,-0.0
1762691369.8374693,0.0,0.0,0.075,3.0,0.0,1.5,0.0,0.0,0.0,0.0,0.0,0.0,0.0,0.0,0.0,0.0,0.0,0.0,15.0,0.0,48.327000000000005,15.0,0.0,48.327000000000005,0.0,0.0,0.0,25.300686398791637,25.300686398791637,0.0,0.30095733206991737,0.30095733206991737,25.300686398791637,25.300686398791637,0.0,0.30095733206991737,0.30095733206991737,-0.0,-0.0
1762691369.8393104,-3.4060652557370494e-09,-1.175643744294393e-22,0.07509282362940391,3.0,0.0,1.5,1.0613297936803518e-21,-3.072543542524908e-08,-1.9189985736862218e-23,-6.978091172947705e-06,-4.211488907928352e-17,0.18605371627684175,3.721597741871414e-16,-6.16343736344458e-05,-2.640350397546148e-17,0.0,0.0,0.0,15.0,0.0,48.327000000000005,15.0,0.0,48.327000000000005,0.0,0.0,0.0,25.300686398791637,25.300686398791637,0.0,0.30095733206991737,0.30095733206991737,25.300686398791637,25.300686398791637,0.0,0.30095733206991737,0.30095733206991737,-0.0,-0.0
1762691369.8409564,-3.4060652557370494e-09,-1.175643744294393e-22,0.07509282362940391,3.0,0.0,1.5,1.0613297936803518e-21,-3.072543542524908e-08,-1.9189985736862218e-23,-6.978091172947705e-06,-4.211488907928352e-17,0.18605371627684175,3.721597741871414e-16,-6.16343736344458e-05,-2.640350397546148e-17,0.0,0.0,0.0,15.000069797942055,4.2114947861470734e-16,46.46599871908457,15.00007122563009,4.2119908221417734e-16,46.46599825820087,-1.860855192152235e-17,3.0970813994349145e-06,1.3192672803748315e-18,24.413575379328055,24.413575379328055,5.161802332391525e-06,0.31225732969788467,0.31225732969788467,24.413575379328055,24.413575379328055,5.161802332391525e-06,0.31225732969788467,0.31225732969788467,-8.62632932026055e-18,-8.62632932026055e-18
1762691369.8426185,-3.4060652557370494e-09,-1.175643744294393e-22,0.07509282362940391,3.0,0.0,1.5,1.0613297936803518e-21,-3.072543542524908e-08,-1.9189985736862218e-23,-6.978091172947705e-06,-4.211488907928352e-17,0.18605371627684175,3.721597741871414e-16,-6.16343736344458e-05,-2.640350397546148e-17,0.0,0.0,0.0,15.000069797942055,4.2114947861470734e-16,46.46599871908457,15.00007122563009,4.2119908221417734e-16,46.46599825820087,-1.860855192152235e-17,3.0970813994349145e-06,1.3192672803748315e-18,24.413575379328055,24.413575379328055,5.161802332391525e-06,0.31225732969788467,0.31225732969788467,24.413575379328055,24.413575379328055,5.161802332391525e-06,0.31225732969788467,0.31225732969788467,-8.62632932026055e-18,-8.62632932026055e-18
1762691369.8443558,-1.3407660626789496e-08,-8.557892140533803e-21,0.07536389049821952,3.0,0.0,1.5,7.46682474065893e-20,-1.2092712677245068e-07,3.788773815499167e-20,-1.3311362655799293e-05,8.023426651080211e-18,0.353052986440134,-7.597248481329824e-17,-0.00011749488749751642,9.435786737595927e-17,0.0,0.0,0.0,15.000069797942055,4.2114947861470734e-16,46.46599871908457,15.00007122563009,4.2119908221417734e-16,46.46599825820087,-1.860855192152235e-17,3.0970813994349145e-06,1.3192672803748315e-18,24.413575379328055,24.413575379328055,5.161802332391525e-06,0.31225732969788467,0.31225732969788467,24.413575379328055,24.413575379328055,5.161802332391525e-06,0.31225732969788467,0.31225732969788467,-8.62632932026055e-18,-8.62632932026055e-18
1762691369.845929,-1.3407660626789496e-08,-8.557892140533803e-21,0.07536389049821952,3.0,0.0,1.5,7.46682474065893e-20,-1.2092712677245068e-07,3.788773815499167e-20,-1.3311362655799293e-05,8.023426651080211e-18,0.353052986440134,-7.597248481329824e-17,-0.00011749488749751642,9.435786737595927e-17,0.0,0.0,0.0,15.000133180664863,-8.019147705009943e-17,44.79465068310757,15.000138597553155,-7.741506024408292e-17,44.794648869184236,3.761511847156441e-18,5.935207938262047e-06,-4.736480184990572e-18,23.619715488553688,23.619715488553688,9.892013230436745e-06,0.3231280553930183,0.3231280553930183,23.619715488553688,23.619715488553688,9.892013230436745e-06,0.3231280553930183,0.3231280553930183,1.6387805408070836e-18,1.6387805408070836e-18
1762691369.847785,-1.3407660626789496e-08,-8.557892140533803e-21,0.07536389049821952,3.0,0.0,1.5,7.46682474065893e-20,-1.2092712677245068e-07,3.788773815499167e-20,-1.3311362655799293e-05,8.023426651080211e-18,0.353052986440134,-7.597248481329824e-17,-0.00011749488749751642,9.435786737595927e-17,0.0,0.0,0.0,15.000133180664863,-8.019147705009943e-17,44.79465068310757,15.000138597553155,-7.741506024408292e-17,44.794648869184236,3.761511847156441e-18,5.935207938262047e-06,-4.736480184990572e-18,23.619715488553688,23.619715488553688,9.892013230436745e-06,0.3231280553930183,0.3231280553930183,23.619715488553688,23.619715488553688,9.892013230436745e-06,0.3231280553930183,0.3231280553930183,1.6387805408070836e-18,1.6387805408070836e-18
1762691369.8501155,-2.930814074783577e-08,-5.0131489376365135e-21,0.07579311796836748,3.0,0.0,1.5,3.062620043784128e-20,-2.642432740742408e-07,2.0372113923900888e-19,-1.9034753399204918e-05,3.2800554368623026e-20,0.5026098588620884,-1.3087064001966378e-17,-0.0001679212309796545,2.3801447184080296e-16,0.0,0.0,0.0,15.000133180664863,-8.019147705009943e-17,44.79465068310757,15.000138597553155,-7.741506024408292e-17,44.794648869184236,3.761511847156441e-18,5.935207938262047e-06,-4.736480184990572e-18,23.619715488553688,23.619715488553688,9.892013230436745e-06,0.3231280553930183,0.3231280553930183,23.619715488553688,23.619715488553688,9.892013230436745e-06,0.3231280553930183,0.3231280553930183,1.6387805408070836e-18,1.6387805408070836e-18
1762691369.852076,-2.930814074783577e-08,-5.0131489376365135e-21,0.07579311796836748,3.0,0.0,1.5,3.062620043784128e-20,-2.642432740742408e-07,2.0372113923900888e-19,-1.9034753399204918e-05,3.2800554368623026e-20,0.5026098588620884,-1.3087064001966378e-17,-0.0001679212309796545,2.3801447184080296e-16,0.0,0.0,0.0,15.000190494074698,-3.029397989980472e-19,43.29693582153729,15.000201934998252,-2.032775181831445e-18,43.29693185783633,6.39839440083463e-19,8.528183186019844e-06,-1.2002496259846959e-17,22.910855154157616,22.910855154157616,1.4213638643366407e-05,0.3335084288019691,0.3335084288019691,22.910855154157616,22.910855154157616,1.4213638643366407e-05,0.3335084288019691,0.3335084288019691,4.436270859716379e-20,4.436270859716379e-20
1762691369.8539462,-2.930814074783577e-08,-5.0131489376365135e-21,0.07579311796836748,3.0,0.0,1.5,3.062620043784128e-20,-2.642432740742408e-07,2.0372113923900888e-19,-1.9034753399204918e-05,3.2800554368623026e-20,0.5026098588620884,-1.3087064001966378e-17,-0.0001679212309796545,2.3801447184080296e-16,0.0,0.0,0.0,15.000190494074698,-3.029397989980472e-19,43.29693582153729,15.000201934998252,-2.032775181831445e-18,43.29693185783633,6.39839440083463e-19,8.528183186019844e-06,-1.2002496259846959e-17,22.910855154157616,22.910855154157616,1.4213638643366407e-05,0.3335084288019691,0.3335084288019691,22.910855154157616,22.910855154157616,1.4213638643366407e-05,0.3335084288019691,0.3335084288019691,4.436270859716379e-20,4.436270859716379e-20
1762691369.8560176,-5.05232564759855e-08,-3.053089695708947e-21,0.07636375163428777,3.0,0.0,1.5,-6.628598036202902e-21,-4.5536737815830225e-07,6.09122676015777e-19,-2.417410202324007e-05,4.341093772999036e-18,0.636083932631575,-6.167458029190742e-17,-0.00021316731040588445,5.727360100342181e-16,0.0,0.0,0.0,15.000190494074698,-3.029397989980472e-19,43.29693582153729,15.000201934998252,-2.032775181831445e-18,43.29693185783633,6.39839440083463e-19,8.528183186019844e-06,-1.2002496259846959e-17,22.910855154157616,22.910855154157616,1.4213638643366407e-05,0.3335084288019691,0.3335084288019691,22.910855154157616,22.910855154157616,1.4213638643366407e-05,0.3335084288019691,0.3335084288019691,4.436270859716379e-20,4.436270859716379e-20
1762691369.8581328,-5.05232564759855e-08,-3.053089695708947e-21,0.07636375163428777,3.0,0.0,1.5,-6.628598036202902e-21,-4.5536737815830225e-07,6.09122676015777e-19,-2.417410202324007e-05,4.341093772999036e-18,0.636083932631575,-6.167458029190742e-17,-0.00021316731040588445,5.727360100342181e-16,0.0,0.0,0.0,15.000241993636514,-4.339567228151182e-17,41.959341915512816,15.000261100550476,-5.2810791391703985e-17,41.9593350848876,3.089485016166455e-18,1.0886049209373366e-05,-2.8940835958788113e-17,22.279991647662303,22.279991647662303,1.814341534895561e-05,0.343336532164514,0.343336532164514,22.279991647662303,22.279991647662303,1.814341534895561e-05,0.343336532164514,0.343336532164514,1.1851618310019673e-18,1.1851618310019673e-18
1762691369.8600204,-5.05232564759855e-08,-3.053089695708947e-21,0.07636375163428777,3.0,0.0,1.5,-6.628598036202902e-21,-4.5536737815830225e-07,6.09122676015777e-19,-2.417410202324007e-05,4.341093772999036e-18,0.636083932631575,-6.167458029190742e-17,-0.00021316731040588445,5.727360100342181e-16,0.0,0.0,0.0,15.000241993636514,-4.339567228151182e-17,41.959341915512816,15.000261100550476,-5.2810791391703985e-17,41.9593350848876,3.089485016166455e-18,1.0886049209373366e-05,-2.8940835958788113e-17,22.279991647662303,22.279991647662303,1.814341534895561e-05,0.343336532164514,0.343336532164514,22.279991647662303,22.279991647662303,1.814341534895561e-05,0.343336532164514,0.343336532164514,1.1851618310019673e-18,1.1851618310019673e-18
1762691369.8620486,-7.64928968876739e-08,3.512938188590651e-21,0.07706034864335486,3.0,0.0,1.5,-7.38085815603535e-20,-6.892368861999923e-07,1.323306169191591e-18,-2.8753008217664122e-05,8.356929842864175e-18,0.7547397982652663,-7.919244334504352e-17,-0.0002534673005506584,8.707460997792442e-16,0.0,0.0,0.0,15.000241993636514,-4.339567228151182e-17,41.959341915512816,15.000261100550476,-5.2810791391703985e-17,41.9593350848876,3.089485016166455e-18,1.0886049209373366e-05,-2.8940835958788113e-17,22.279991647662303,22.279991647662303,1.814341534895561e-05,0.343336532164514,0.343336532164514,22.279991647662303,22.279991647662303,1.814341534895561e-05,0.343336532164514,0.343336532164514,1.1851618310019673e-18,1.1851618310019673e-18
1762691369.8638878,-7.64928968876739e-08,3.512938188590651e-21,0.07706034864335486,3.0,0.0,1.5,-7.38085815603535e-20,-6.892368861999923e-07,1.323306169191591e-18,-2.8753008217664122e-05,8.356929842864175e-18,0.7547397982652663,-7.919244334504352e-17,-0.0002534673005506584,8.707460997792442e-16,0.0,0.0,0.0,15.000287912546666,-8.358686311958471e-17,40.76930027413057,15.000316012248675,-1.0644596011526016e-16,40.76928993536915,4.000940343282014e-18,1.3017983470632891e-05,-4.419815515304648e-17,21.720627944357673,21.720627944357673,2.1696639117721488e-05,0.3525596630327107,0.3525596630327107,21.720627944357673,21.720627944357673,2.1696639117721488e-05,0.3525596630327107,0.3525596630327107,2.4503426049179076e-18,2.4503426049179076e-18
1762691369.865858,-7.64928968876739e-08,3.512938188590651e-21,0.07706034864335486,3.0,0.0,1.5,-7.38085815603535e-20,-6.892368861999923e-07,1.323306169191591e-18,-2.8753008217664122e-05,8.356929842864175e-18,0.7547397982652663,-7.919244334504352e-17,-0.0002534673005506584,8.707460997792442e-16,0.0,0.0,0.0,15.000287912546666,-8.358686311958471e-17,40.76930027413057,15.000316012248675,-1.0644596011526016e-16,40.76928993536915,4.000940343282014e-18,1.3017983470632891e-05,-4.419815515304648e-17,21.720627944357673,21.720627944357673,2.1696639117721488e-05,0.3525596630327107,0.3525596630327107,21.720627944357673,21.720627944357673,2.1696639117721488e-05,0.3525596630327107,0.3525596630327107,2.4503426049179076e-18,2.4503426049179076e-18
1762691369.86792,-1.0667898455899822e-07,8.463418639572469e-21,0.07786868586729316,3.0,0.0,1.5,-1.3985625481255983e-19,-9.61014988578614e-07,2.3894762875448775e-18,-3.279302700578815e-05,1.602823473405926e-18,0.8597533280601463,-4.8567823256066765e-17,-0.0002890387364685628,1.2388675625505315e-15,0.0,0.0,0.0,15.000287912546666,-8.358686311958471e-17,40.76930027413057,15.000316012248675,-1.0644596011526016e-16,40.76928993536915,4.000940343282014e-18,1.3017983470632891e-05,-4.419815515304648e-17,21.720627944357673,21.720627944357673,2.1696639117721488e-05,0.3525596630327107,0.3525596630327107,21.720627944357673,21.720627944357673,2.1696639117721488e-05,0.3525596630327107,0.3525596630327107,2.4503426049179076e-18,2.4503426049179076e-18
1762691369.869671,-1.0667898455899822e-07,8.463418639572469e-21,0.07786868586729316,3.0,0.0,1.5,-1.3985625481255983e-19,-9.61014988578614e-07,2.3894762875448775e-18,-3.279302700578815e-05,1.602823473405926e-18,0.8597533280601463,-4.8567823256066765e-17,-0.0002890387364685628,1.2388675625505315e-15,0.0,0.0,0.0,15.000328463664985,-1.607055182725712e-17,39.71512329006209,15.000366630486813,-5.746788738323017e-17,39.71510887450326,2.5054803304276005e-18,1.4932444317717374e-05,-6.313755471840706e-17,21.2267454827107,21.2267454827107,2.4887407196195623e-05,0.36113523603649444,0.36113523603649444,21.2267454827107,21.2267454827107,2.4887407196195623e-05,0.36113523603649444,0.36113523603649444,1.353666944139837e-18,1.353666944139837e-18
1762691369.871353,-1.0667898455899822e-07,8.463418639572469e-21,0.07786868586729316,3.0,0.0,1.5,-1.3985625481255983e-19,-9.61014988578614e-07,2.3894762875448775e-18,-3.279302700578815e-05,1.602823473405926e-18,0.8597533280601463,-4.8567823256066765e-17,-0.0002890387364685628,1.2388675625505315e-15,0.0,0.0,0.0,15.000328463664985,-1.607055182725712e-17,39.71512329006209,15.000366630486813,-5.746788738323017e-17,39.71510887450326,2.5054803304276005e-18,1.4932444317717374e-05,-6.313755471840706e-17,21.2267454827107,21.2267454827107,2.4887407196195623e-05,0.36113523603649444,0.36113523603649444,21.2267454827107,21.2267454827107,2.4887407196195623e-05,0.36113523603649444,0.36113523603649444,1.353666944139837e-18,1.353666944139837e-18
1762691369.8733845,-1.4056357790271333e-07,1.1443196893444768e-20,0.07877567415968947,3.0,0.0,1.5,-1.8401536492425483e-19,-1.2660754419678501e-06,3.841772509172935e-18,-3.6313892466975535e-05,3.663515065954807e-18,0.9522175623716381,-4.846497661085362e-17,-0.0003200853953168955,1.6461693458847933e-15,0.0,0.0,0.0,15.000328463664985,-1.607055182725712e-17,39.71512329006209,15.000366630486813,-5.746788738323017e-17,39.71510887450326,2.5054803304276005e-18,1.4932444317717374e-05,-6.313755471840706e-17,21.2267454827107,21.2267454827107,2.4887407196195623e-05,0.36113523603649444,0.36113523603649444,21.2267454827107,21.2267454827107,2.4887407196195623e-05,0.36113523603649444,0.36113523603649444,1.353666944139837e-18,1.353666944139837e-18
1762691369.874992,-1.4056357790271333e-07,1.1443196893444768e-20,0.07877567415968947,3.0,0.0,1.5,-1.8401536492425483e-19,-1.2660754419678501e-06,3.841772509172935e-18,-3.6313892466975535e-05,3.663515065954807e-18,0.9522175623716381,-4.846497661085362e-17,-0.0003200853953168955,1.6461693458847933e-15,0.0,0.0,0.0,15.00036384174256,-3.6692366644015293e-17,38.78594600548518,15.00041294766427,-1.0145755859219487e-16,38.785927013861816,2.5257935923280363e-18,1.663730748682853e-05,-8.422873297333313e-17,20.79277742359026,20.79277742359026,2.7728845811380884e-05,0.3690312851647897,0.3690312851647897,20.79277742359026,20.79277742359026,2.7728845811380884e-05,0.3690312851647897,0.3690312851647897,2.439730790295651e-18,2.439730790295651e-18
1762691369.8765957,-1.4056357790271333e-07,1.1443196893444768e-20,0.07877567415968947,3.0,0.0,1.5,-1.8401536492425483e-19,-1.2660754419678501e-06,3.841772509172935e-18,-3.6313892466975535e-05,3.663515065954807e-18,0.9522175623716381,-4.846497661085362e-17,-0.0003200853953168955,1.6461693458847933e-15,0.0,0.0,0.0,15.00036384174256,-3.6692366644015293e-17,38.78594600548518,15.00041294766427,-1.0145755859219487e-16,38.785927013861816,2.5257935923280363e-18,1.663730748682853e-05,-8.422873297333313e-17,20.79277742359026,20.79277742359026,2.7728845811380884e-05,0.3690312851647897,0.3690312851647897,20.79277742359026,20.79277742359026,2.7728845811380884e-05,0.3690312851647897,0.3690312851647897,2.439730790295651e-18,2.439730790295651e-18
1762691369.8783355,-1.7764721137016467e-07,1.6049865365918266e-20,0.07976927830843254,3.0,0.0,1.5,-2.4879747100250994e-19,-1.599990254779415e-06,5.675437223096462e-18,-3.933378049398253e-05,5.287323529662028e-18,1.0331482173036572,-6.34035437287402e-17,-0.00034680012684348355,2.0259316480736706e-15,0.0,0.0,0.0,15.00036384174256,-3.6692366644015293e-17,38.78594600548518,15.00041294766427,-1.0145755859219487e-16,38.785927013861816,2.5257935923280363e-18,1.663730748682853e-05,-8.422873297333313e-17,20.79277742359026,20.79277742359026,2.7728845811380884e-05,0.3690312851647897,0.3690312851647897,20.79277742359026,20.79277742359026,2.7728845811380884e-05,0.3690312851647897,0.3690312851647897,2.439730790295651e-18,2.439730790295651e-18
1762691369.8799143,-1.7764721137016467e-07,1.6049865365918266e-20,0.07976927830843254,3.0,0.0,1.5,-2.4879747100250994e-19,-1.599990254779415e-06,5.675437223096462e-18,-3.933378049398253e-05,5.287323529662028e-18,1.0331482173036572,-6.34035437287402e-17,-0.00034680012684348355,2.0259316480736706e-15,0.0,0.0,0.0,15.000394226040996,-5.295348462344986e-17,37.97167143542127,15.00045498032605,-1.4753453022664326e-16,37.97164743488809,3.3086255188276863e-18,1.8140001469563545e-05,-1.0413342138143127e-16,20.413582258621414,20.413582258621414,3.023333578260591e-05,0.3762265715387037,0.3762265715387037,20.413582258621414,20.413582258621414,3.023333578260591e-05,0.3762265715387037,0.3762265715387037,3.613636459233753e-18,3.613636459233753e-18
1762691369.8815155,-1.7764721137016467e-07,1.6049865365918266e-20,0.07976927830843254,3.0,0.0,1.5,-2.4879747100250994e-19,-1.599990254779415e-06,5.675437223096462e-18,-3.933378049398253e-05,5.287323529662028e-18,1.0331482173036572,-6.34035437287402e-17,-0.00034680012684348355,2.0259316480736706e-15,0.0,0.0,0.0,15.000394226040996,-5.295348462344986e-17,37.97167143542127,15.00045498032605,-1.4753453022664326e-16,37.97164743488809,3.3086255188276863e-18,1.8140001469563545e-05,-1.0413342138143127e-16,20.413582258621414,20.413582258621414,3.023333578260591e-05,0.3762265715387037,0.3762265715387037,20.413582258621414,20.413582258621414,3.023333578260591e-05,0.3762265715387037,0.3762265715387037,3.613636459233753e-18,3.613636459233753e-18
1762691369.8832853,-2.174474951601286e-07,2.1351538628901058e-20,0.08083844231656913,3.0,0.0,1.5,-2.9977845983937244e-19,-1.958520061067368e-06,7.906131008281883e-18,-4.1869580392477346e-05,3.6007123100403786e-18,1.103488837708815,-4.2689087411205614e-17,-0.0003693674331324986,2.4465093904281622e-15,0.0,0.0,0.0,15.000394226040996,-5.295348462344986e-17,37.97167143542127,15.00045498032605,-1.4753453022664326e-16,37.97164743488809,3.3086255188276863e-18,1.8140001469563545e-05,-1.0413342138143127e-16,20.413582258621414,20.413582258621414,3.023333578260591e-05,0.3762265715387037,0.3762265715387037,20.413582258621414,20.413582258621414,3.023333578260591e-05,0.3762265715387037,0.3762265715387037,3.613636459233753e-18,3.613636459233753e-18
1762691369.8848937,-2.174474951601286e-07,2.1351538628901058e-20,0.08083844231656913,3.0,0.0,1.5,-2.9977845983937244e-19,-1.958520061067368e-06,7.906131008281883e-18,-4.1869580392477346e-05,3.6007123100403786e-18,1.103488837708815,-4.2689087411205614e-17,-0.0003693674331324986,2.4465093904281622e-15,0.0,0.0,0.0,15.000419783041398,-3.61138807935483e-17,37.26291941132901,15.00049276318783,-1.6587977656064394e-16,37.26289003263447,2.3024129472743174e-18,1.944763168715799e-05,-1.2627790416041912e-16,20.084417723327874,20.084417723327874,3.2412719478596655e-05,0.38271032598846355,0.38271032598846355,20.084417723327874,20.084417723327874,3.2412719478596655e-05,0.38271032598846355,0.38271032598846355,4.129563994478567e-18,4.129563994478567e-18
1762691369.8864994,-2.174474951601286e-07,2.1351538628901058e-20,0.08083844231656913,3.0,0.0,1.5,-2.9977845983937244e-19,-1.958520061067368e-06,7.906131008281883e-18,-4.1869580392477346e-05,3.6007123100403786e-18,1.103488837708815,-4.2689087411205614e-17,-0.0003693674331324986,2.4465093904281622e-15,0.0,0.0,0.0,15.000419783041398,-3.61138807935483e-17,37.26291941132901,15.00049276318783,-1.6587977656064394e-16,37.26289003263447,2.3024129472743174e-18,1.944763168715799e-05,-1.2627790416041912e-16,20.084417723327874,20.084417723327874,3.2412719478596655e-05,0.38271032598846355,0.38271032598846355,20.084417723327874,20.084417723327874,3.2412719478596655e-05,0.38271032598846355,0.38271032598846355,4.129563994478567e-18,4.129563994478567e-18
1762691369.8921013,-2.5949798092436287e-07,2.5083701942242578e-20,0.08197301966821051,3.0,0.0,1.5,-3.414192153806922e-19,-2.33760693727412e-06,1.0538122991031156e-17,-4.393716133143564e-05,6.776664565833691e-18,1.1641156179057581,-5.566056632590387e-17,-0.00038796573559070043,2.820344810686004e-15,0.0,0.0,0.0,15.000419783041398,-3.61138807935483e-17,37.26291941132901,15.00049276318783,-1.6587977656064394e-16,37.26289003263447,2.3024129472743174e-18,1.944763168715799e-05,-1.2627790416041912e-16,20.084417723327874,20.084417723327874,3.2412719478596655e-05,0.38271032598846355,0.38271032598846355,20.084417723327874,20.084417723327874,3.2412719478596655e-05,0.38271032598846355,0.38271032598846355,4.129563994478567e-18,4.129563994478567e-18
1762691369.893946,-2.5949798092436287e-07,2.5083701942242578e-20,0.08197301966821051,3.0,0.0,1.5,-3.414192153806922e-19,-2.33760693727412e-06,1.0538122991031156e-17,-4.393716133143564e-05,6.776664565833691e-18,1.1641156179057581,-5.566056632590387e-17,-0.00038796573559070043,2.820344810686004e-15,0.0,0.0,0.0,15.00044066910322,-6.78920641680481e-17,36.65097872260137,15.000526344644355,-2.3848188928518374e-16,36.650943657367065,2.9756157084698986e-18,2.056709024817102e-05,-1.4628543805458027e-16,19.800915060392327,19.800915060392327,3.42784837469517e-05,0.38848167486933133,0.38848167486933133,19.800915060392327,19.800915060392327,3.42784837469517e-05,0.38848167486933133,0.38848167486933133,6.021991624069382e-18,6.021991624069382e-18
1762691369.8956304,-2.5949798092436287e-07,2.5083701942242578e-20,0.08197301966821051,3.0,0.0,1.5,-3.414192153806922e-19,-2.33760693727412e-06,1.0538122991031156e-17,-4.393716133143564e-05,6.776664565833691e-18,1.1641156179057581,-5.566056632590387e-17,-0.00038796573559070043,2.820344810686004e-15,0.0,0.0,0.0,15.00044066910322,-6.78920641680481e-17,36.65097872260137,15.000526344644355,-2.3848188928518374e-16,36.650943657367065,2.9756157084698986e-18,2.056709024817102e-05,-1.4628543805458027e-16,19.800915060392327,19.800915060392327,3.42784837469517e-05,0.38848167486933133,0.38848167486933133,19.800915060392327,19.800915060392327,3.42784837469517e-05,0.38848167486933133,0.38848167486933133,6.021991624069382e-18,6.021991624069382e-18
1762691369.8976257,-3.033472818549743e-07,2.9340407522727374e-20,0.08316370825782364,3.0,0.0,1.5,-3.927438219258335e-19,-2.733369313480362e-06,1.3574593529326982e-17,-4.5551627401662576e-05,4.1331796200144436e-18,1.21584191112207,-4.462576931664357e-17,-0.000402769329452817,3.287705194108516e-15,0.0,0.0,0.0,15.00044066910322,-6.78920641680481e-17,36.65097872260137,15.000526344644355,-2.3848188928518374e-16,36.650943657367065,2.9756157084698986e-18,2.056709024817102e-05,-1.4628543805458027e-16,19.800915060392327,19.800915060392327,3.42784837469517e-05,0.38848167486933133,0.38848167486933133,19.800915060392327,19.800915060392327,3.42784837469517e-05,0.38848167486933133,0.38848167486933133,6.021991624069382e-18,6.021991624069382e-18
1762691369.8995285,-3.033472818549743e-07,2.9340407522727374e-20,0.08316370825782364,3.0,0.0,1.5,-3.927438219258335e-19,-2.733369313480362e-06,1.3574593529326982e-17,-4.5551627401662576e-05,4.1331796200144436e-18,1.21584191112207,-4.462576931664357e-17,-0.000402769329452817,3.287705194108516e-15,0.0,0.0,0.0,15.000457033010425,-4.147849823775813e-17,36.12776234749019,15.000555783471354,-2.592925445737381e-16,36.127721345566286,2.4541348370297723e-18,2.150515112937933e-05,-1.711718372460508e-16,19.559053745411067,19.559053745411067,3.584191854896555e-05,0.39354881034954003,0.39354881034954003,19.559053745411067,19.559053745411067,3.584191854896555e-05,0.39354881034954003,0.39354881034954003,6.6284531948426474e-18,6.6284531948426474e-18
1762691369.9013705,-3.033472818549743e-07,2.9340407522727374e-20,0.08316370825782364,3.0,0.0,1.5,-3.927438219258335e-19,-2.733369313480362e-06,1.3574593529326982e-17,-4.5551627401662576e-05,4.1331796200144436e-18,1.21584191112207,-4.462576931664357e-17,-0.000402769329452817,3.287705194108516e-15,0.0,0.0,0.0,15.000457033010425,-4.147849823775813e-17,36.12776234749019,15.000555783471354,-2.592925445737381e-16,36.127721345566286,2.4541348370297723e-18,2.150515112937933e-05,-1.711718372460508e-16,19.559053745411067,19.559053745411067,3.584191854896555e-05,0.39354881034954003,0.39354881034954003,19.559053745411067,19.559053745411067,3.584191854896555e-05,0.39354881034954003,0.39354881034954003,6.6284531948426474e-18,6.6284531948426474e-18
1762691369.903432,-3.485584319426e-07,3.79977859643625e-20,0.084401989681587,3.0,0.0,1.5,-4.368873315765903e-19,-3.142098652541132e-06,1.7006853626069638e-17,-4.672754748929065e-05,-4.5524822944868386e-18,1.259422447359448,1.8580512258578995e-17,-0.0004139499563961993,3.640046864510161e-15,0.0,0.0,0.0,15.000457033010425,-4.147849823775813e-17,36.12776234749019,15.000555783471354,-2.592925445737381e-16,36.127721345566286,2.4541348370297723e-18,2.150515112937933e-05,-1.711718372460508e-16,19.559053745411067,19.559053745411067,3.584191854896555e-05,0.39354881034954003,0.39354881034954003,19.559053745411067,19.559053745411067,3.584191854896555e-05,0.39354881034954003,0.39354881034954003,6.6284531948426474e-18,6.6284531948426474e-18
1762691369.905007,-3.485584319426e-07,3.79977859643625e-20,0.084401989681587,3.0,0.0,1.5,-4.368873315765903e-19,-3.142098652541132e-06,1.7006853626069638e-17,-4.672754748929065e-05,-4.5524822944868386e-18,1.259422447359448,1.8580512258578995e-17,-0.0004139499563961993,3.640046864510161e-15,0.0,0.0,0.0,15.000469018267053,4.533483401504657e-17,35.68576557799759,15.000581146388942,-2.253665852077856e-16,35.685718444867945,-6.804593616272774e-19,2.2268547146077947e-05,-1.9050607735142567e-16,19.355136829535414,19.355136829535414,3.711424524346325e-05,0.39792797269501,0.39792797269501,19.355136829535414,19.355136829535414,3.711424524346325e-05,0.39792797269501,0.39792797269501,5.821880444262277e-18,5.821880444262277e-18
1762691369.9065979,-3.485584319426e-07,3.79977859643625e-20,0.084401989681587,3.0,0.0,1.5,-4.368873315765903e-19,-3.142098652541132e-06,1.7006853626069638e-17,-4.672754748929065e-05,-4.5524822944868386e-18,1.259422447359448,1.8580512258578995e-17,-0.0004139499563961993,3.640046864510161e-15,0.0,0.0,0.0,15.000469018267053,4.533483401504657e-17,35.68576557799759,15.000581146388942,-2.253665852077856e-16,35.685718444867945,-6.804593616272774e-19,2.2268547146077947e-05,-1.9050607735142567e-16,19.355136829535414,19.355136829535414,3.711424524346325e-05,0.39792797269501,0.39792797269501,19.355136829535414,19.355136829535414,3.711424524346325e-05,0.39792797269501,0.39792797269501,5.821880444262277e-18,5.821880444262277e-18
1762691369.9084811,-3.9470845753595065e-07,3.9659039121691293e-20,0.08568007260856579,3.0,0.0,1.5,-4.580229584701196e-19,-3.5602575163358313e-06,2.0828841740028876e-17,-4.7479156610454244e-05,4.266297605290337e-18,1.2955572781475995,-5.66732357248173e-17,-0.0004216780123691055,3.969538035092255e-15,0.0,0.0,0.0,15.000469018267053,4.533483401504657e-17,35.68576557799759,15.000581146388942,-2.253665852077856e-16,35.685718444867945,-6.804593616272774e-19,2.2268547146077947e-05,-1.9050607735142567e-16,19.355136829535414,19.355136829535414,3.711424524346325e-05,0.39792797269501,0.39792797269501,19.355136829535414,19.355136829535414,3.711424524346325e-05,0.39792797269501,0.39792797269501,5.821880444262277e-18,5.821880444262277e-18
1762691369.9101562,-3.9470845753595065e-07,3.9659039121691293e-20,0.08568007260856579,3.0,0.0,1.5,-4.580229584701196e-19,-3.5602575163358313e-06,2.0828841740028876e-17,-4.7479156610454244e-05,4.266297605290337e-18,1.2955572781475995,-5.66732357248173e-17,-0.0004216780123691055,3.969538035092255e-15,0.0,0.0,0.0,15.000476765108393,-4.286127124851186e-17,35.31802685548118,15.000602506283897,-3.714802705005343e-16,35.31797344969719,3.096132064638334e-18,2.286402937661943e-05,-2.0889036630262845e-16,19.185767071207742,19.185767071207742,3.810671562769905e-05,0.4016423124534649,0.4016423124534649,19.185767071207742,19.185767071207742,3.810671562769905e-05,0.4016423124534649,0.4016423124534649,9.681141992441318e-18,9.681141992441318e-18
1762691369.9116971,-3.9470845753595065e-07,3.9659039121691293e-20,0.08568007260856579,3.0,0.0,1.5,-4.580229584701196e-19,-3.5602575163358313e-06,2.0828841740028876e-17,-4.7479156610454244e-05,4.266297605290337e-18,1.2955572781475995,-5.66732357248173e-17,-0.0004216780123691055,3.969538035092255e-15,0.0,0.0,0.0,15.000476765108393,-4.286127124851186e-17,35.31802685548118,15.000602506283897,-3.714802705005343e-16,35.31797344969719,3.096132064638334e-18,2.286402937661943e-05,-2.0889036630262845e-16,19.185767071207742,19.185767071207742,3.810671562769905e-05,0.4016423124534649,0.4016423124534649,19.185767071207742,19.185767071207742,3.810671562769905e-05,0.4016423124534649,0.4016423124534649,9.681141992441318e-18,9.681141992441318e-18
1762691369.9133468,-4.413881309774709e-07,4.712500119734873e-20,0.08699083996734466,3.0,0.0,1.5,-5.119983604009219e-19,-3.984478653582409e-06,2.5001298107775407e-17,-4.7820524691941045e-05,1.0940939901719655e-17,1.3248954654993277,-7.538903214790526e-17,-0.0004261233973967279,4.356890033960236e-15,0.0,0.0,0.0,15.000476765108393,-4.286127124851186e-17,35.31802685548118,15.000602506283897,-3.714802705005343e-16,35.31797344969719,3.096132064638334e-18,2.286402937661943e-05,-2.0889036630262845e-16,19.185767071207742,19.185767071207742,3.810671562769905e-05,0.4016423124534649,0.4016423124534649,19.185767071207742,19.185767071207742,3.810671562769905e-05,0.4016423124534649,0.4016423124534649,9.681141992441318e-18,9.681141992441318e-18
1762691369.9149468,-4.413881309774709e-07,4.712500119734873e-20,0.08699083996734466,3.0,0.0,1.5,-5.119983604009219e-19,-3.984478653582409e-06,2.5001298107775407e-17,-4.7820524691941045e-05,1.0940939901719655e-17,1.3248954654993277,-7.538903214790526e-17,-0.0004261233973967279,4.356890033960236e-15,0.0,0.0,0.0,15.000480412187578,-1.096450240231833e-16,35.01809114517001,15.000619940905159,-5.026056812170073e-16,35.01803137579804,4.0625573389771545e-18,2.329840919662233e-05,-2.30343865240618e-16,19.04782402599628,19.04782402599628,3.883068199437055e-05,0.4047206960027292,0.4047206960027292,19.04782402599628,19.04782402599628,3.883068199437055e-05,0.4047206960027292,0.4047206960027292,1.3193257154493237e-17,1.3193257154493237e-17
1762691369.9166765,-4.413881309774709e-07,4.712500119734873e-20,0.08699083996734466,3.0,0.0,1.5,-5.119983604009219e-19,-3.984478653582409e-06,2.5001298107775407e-17,-4.7820524691941045e-05,1.0940939901719655e-17,1.3248954654993277,-7.538903214790526e-17,-0.0004261233973967279,4.356890033960236e-15,0.0,0.0,0.0,15.000480412187578,-1.096450240231833e-16,35.01809114517001,15.000619940905159,-5.026056812170073e-16,35.01803137579804,4.0625573389771545e-18,2.329840919662233e-05,-2.30343865240618e-16,19.04782402599628,19.04782402599628,3.883068199437055e-05,0.4047206960027292,0.4047206960027292,19.04782402599628,19.04782402599628,3.883068199437055e-05,0.4047206960027292,0.4047206960027292,1.3193257154493237e-17,1.3193257154493237e-17
1762691369.9185677,-4.882018748200217e-07,5.338853265753262e-20,0.08832779970052175,3.0,0.0,1.5,-5.815769609346658e-19,-4.411564772120822e-06,2.950841650040422e-17,-4.7765691174881856e-05,8.221279996446336e-18,1.3480385312968308,-3.4895795691638744e-17,-0.000427456030082486,4.699946711115783e-15,0.0,0.0,0.0,15.000480412187578,-1.096450240231833e-16,35.01809114517001,15.000619940905159,-5.026056812170073e-16,35.01803137579804,4.0625573389771545e-18,2.329840919662233e-05,-2.30343865240618e-16,19.04782402599628,19.04782402599628,3.883068199437055e-05,0.4047206960027292,0.4047206960027292,19.04782402599628,19.04782402599628,3.883068199437055e-05,0.4047206960027292,0.4047206960027292,1.3193257154493237e-17,1.3193257154493237e-17
1762691369.9201748,-4.882018748200217e-07,5.338853265753262e-20,0.08832779970052175,3.0,0.0,1.5,-5.815769609346658e-19,-4.411564772120822e-06,2.950841650040422e-17,-4.7765691174881856e-05,8.221279996446336e-18,1.3480385312968308,-3.4895795691638744e-17,-0.000427456030082486,4.699946711115783e-15,0.0,0.0,0.0,15.000480097921121,-8.247974262775104e-17,34.77997568852908,15.000633531890674,-5.45347351139153e-16,34.77990951260107,2.0757261317298327e-18,2.3578583890177555e-05,-2.497509465077717e-16,18.938442244068227,18.938442244068227,3.9297639816962595e-05,0.40719651004125895,0.40719651004125895,18.938442244068227,18.938442244068227,3.9297639816962595e-05,0.40719651004125895,0.40719651004125895,1.439789355721596e-17,1.439789355721596e-17
1762691369.921849,-4.882018748200217e-07,5.338853265753262e-20,0.08832779970052175,3.0,0.0,1.5,-5.815769609346658e-19,-4.411564772120822e-06,2.950841650040422e-17,-4.7765691174881856e-05,8.221279996446336e-18,1.3480385312968308,-3.4895795691638744e-17,-0.000427456030082486,4.699946711115783e-15,0.0,0.0,0.0,15.000480097921121,-8.247974262775104e-17,34.77997568852908,15.000633531890674,-5.45347351139153e-16,34.77990951260107,2.0757261317298327e-18,2.3578583890177555e-05,-2.497509465077717e-16,18.938442244068227,18.938442244068227,3.9297639816962595e-05,0.40719651004125895,0.40719651004125895,18.938442244068227,18.938442244068227,3.9297639816962595e-05,0.40719651004125895,0.40719651004125895,1.439789355721596e-17,1.439789355721596e-17
1762691369.92393,-5.347677825783509e-07,5.99551238754322e-20,0.08968503885518442,3.0,0.0,1.5,-6.207083464815946e-19,-4.8384886711426315e-06,3.4377093540660995e-17,-4.7328766266318536e-05,1.8826508205163685e-18,1.3655436823238638,-3.085492793945552e-17,-0.000425846065476295,5.041643769331433e-15,0.0,0.0,0.0,15.000480097921121,-8.247974262775104e-17,34.77997568852908,15.000633531890674,-5.45347351139153e-16,34.77990951260107,2.0757261317298327e-18,2.3578583890177555e-05,-2.497509465077717e-16,18.938442244068227,18.938442244068227,3.9297639816962595e-05,0.40719651004125895,0.40719651004125895,18.938442244068227,18.938442244068227,3.9297639816962595e-05,0.40719651004125895,0.40719651004125895,1.439789355721596e-17,1.439789355721596e-17
1762691369.9256773,-5.347677825783509e-07,5.99551238754322e-20,0.08968503885518442,3.0,0.0,1.5,-6.207083464815946e-19,-4.8384886711426315e-06,3.4377093540660995e-17,-4.7328766266318536e-05,1.8826508205163685e-18,1.3655436823238638,-3.085492793945552e-17,-0.000425846065476295,5.041643769331433e-15,0.0,0.0,0.0,15.000475961501571,-1.9126283824540804e-17,34.59813798248545,15.000643364024656,-5.562743570749323e-16,34.59806540244746,1.895998270171404e-18,2.3711547609376627e-05,-2.692702089079924e-16,18.854990694437735,18.854990694437735,3.9519246015627716e-05,0.40910651065474024,0.40910651065474024,18.854990694437735,18.854990694437735,3.9519246015627716e-05,0.40910651065474024,0.40910651065474024,1.4751382434758627e-17,1.4751382434758627e-17
1762691369.9274268,-5.347677825783509e-07,5.99551238754322e-20,0.08968503885518442,3.0,0.0,1.5,-6.207083464815946e-19,-4.8384886711426315e-06,3.4377093540660995e-17,-4.7328766266318536e-05,1.8826508205163685e-18,1.3655436823238638,-3.085492793945552e-17,-0.000425846065476295,5.041643769331433e-15,0.0,0.0,0.0,15.000475961501571,-1.9126283824540804e-17,34.59813798248545,15.000643364024656,-5.562743570749323e-16,34.59806540244746,1.895998270171404e-18,2.3711547609376627e-05,-2.692702089079924e-16,18.854990694437735,18.854990694437735,3.9519246015627716e-05,0.40910651065474024,0.40910651065474024,18.854990694437735,18.854990694437735,3.9519246015627716e-05,0.40910651065474024,0.40910651065474024,1.4751382434758627e-17,1.4751382434758627e-17
1762691369.9291983,-5.807177245756042e-07,6.386777621050521e-20,0.09105718079222054,3.0,0.0,1.5,-6.626656789488193e-19,-5.262393461170616e-06,3.963901270410497e-17,-4.652400058258741e-05,4.53131545566369e-18,1.3779268252059107,-4.1032418900879337e-17,-0.00042146385762663373,5.453706834020062e-15,0.0,0.0,0.0,15.000475961501571,-1.9126283824540804e-17,34.59813798248545,15.000643364024656,-5.562743570749323e-16,34.59806540244746,1.895998270171404e-18,2.3711547609376627e-05,-2.692702089079924e-16,18.854990694437735,18.854990694437735,3.9519246015627716e-05,0.40910651065474024,0.40910651065474024,18.854990694437735,18.854990694437735,3.9519246015627716e-05,0.40910651065474024,0.40910651065474024,1.4751382434758627e-17,1.4751382434758627e-17
1762691369.9315171,-5.807177245756042e-07,6.386777621050521e-20,0.09105718079222054,3.0,0.0,1.5,-6.626656789488193e-19,-5.262393461170616e-06,3.963901270410497e-17,-4.652400058258741e-05,4.53131545566369e-18,1.3779268252059107,-4.1032418900879337e-17,-0.00042146385762663373,5.453706834020062e-15,0.0,0.0,0.0,15.000468143594448,-4.5632493437689465e-17,34.46744584397979,15.000649524648377,-6.630765818409224e-16,34.46736690513706,2.4288724419083844e-18,2.370438961190485e-05,-2.9250415543385423e-16,18.795053498925714,18.795053498925714,3.950731601984142e-05,0.41048975184086356,0.41048975184086356,18.795053498925714,18.795053498925714,3.950731601984142e-05,0.41048975184086356,0.41048975184086356,1.7639656675593462e-17,1.7639656675593462e-17
1762691369.93355,-5.807177245756042e-07,6.386777621050521e-20,0.09105718079222054,3.0,0.0,1.5,-6.626656789488193e-19,-5.262393461170616e-06,3.963901270410497e-17,-4.652400058258741e-05,4.53131545566369e-18,1.3779268252059107,-4.1032418900879337e-17,-0.00042146385762663373,5.453706834020062e-15,0.0,0.0,0.0,15.000468143594448,-4.5632493437689465e-17,34.46744584397979,15.000649524648377,-6.630765818409224e-16,34.46736690513706,2.4288724419083844e-18,2.370438961190485e-05,-2.9250415543385423e-16,18.795053498925714,18.795053498925714,3.950731601984142e-05,0.41048975184086356,0.41048975184086356,18.795053498925714,18.795053498925714,3.950731601984142e-05,0.41048975184086356,0.41048975184086356,1.7639656675593462e-17,1.7639656675593462e-17
1762691369.9355657,-6.256975094740389e-07,6.522453446143663e-20,0.09243934531112989,3.0,0.0,1.5,-6.979459861628445e-19,-5.680592641470954e-06,4.5198307266516865e-17,-4.536582629048308e-05,-5.286072144508371e-19,1.3856653846270295,-1.9520842927041624e-17,-0.0004144797145180736,5.637446663560749e-15,0.0,0.0,0.0,15.000468143594448,-4.5632493437689465e-17,34.46744584397979,15.000649524648377,-6.630765818409224e-16,34.46736690513706,2.4288724419083844e-18,2.370438961190485e-05,-2.9250415543385423e-16,18.795053498925714,18.795053498925714,3.950731601984142e-05,0.41048975184086356,0.41048975184086356,18.795053498925714,18.795053498925714,3.950731601984142e-05,0.41048975184086356,0.41048975184086356,1.7639656675593462e-17,1.7639656675593462e-17
1762691369.9374697,-6.256975094740389e-07,6.522453446143663e-20,0.09243934531112989,3.0,0.0,1.5,-6.979459861628445e-19,-5.680592641470954e-06,4.5198307266516865e-17,-4.536582629048308e-05,-5.286072144508371e-19,1.3856653846270295,-1.9520842927041624e-17,-0.0004144797145180736,5.637446663560749e-15,0.0,0.0,0.0,15.000456786750451,4.959949472201205e-18,34.38314942717407,15.000652103174051,-6.970328271743867e-16,34.383064215134866,1.3716830968122428e-18,2.3564282046623883e-05,-3.044711621801908e-16,18.756412021204117,18.756412021204117,3.9273803411039805e-05,0.4113866178222846,0.4113866178222846,18.756412021204117,18.756412021204117,3.9273803411039805e-05,0.4113866178222846,0.4113866178222846,1.8581187766252718e-17,1.8581187766252718e-17
1762691369.9391737,-6.256975094740389e-07,6.522453446143663e-20,0.09243934531112989,3.0,0.0,1.5,-6.979459861628445e-19,-5.680592641470954e-06,4.5198307266516865e-17,-4.536582629048308e-05,-5.286072144508371e-19,1.3856653846270295,-1.9520842927041624e-17,-0.0004144797145180736,5.637446663560749e-15,0.0,0.0,0.0,15.000456786750451,4.959949472201205e-18,34.38314942717407,15.000652103174051,-6.970328271743867e-16,34.383064215134866,1.3716830968122428e-18,2.3564282046623883e-05,-3.044711621801908e-16,18.756412021204117,18.756412021204117,3.9273803411039805e-05,0.4113866178222846,0.4113866178222846,18.756412021204117,18.756412021204117,3.9273803411039805e-05,0.4113866178222846,0.4113866178222846,1.8581187766252718e-17,1.8581187766252718e-17
1762691369.9410555,-6.693670747476074e-07,6.812790628777787e-20,0.09382711149994527,3.0,0.0,1.5,-7.106852609995244e-19,-6.09056984702145e-06,5.095552450155264e-17,-4.386887293580165e-05,3.2369923917043256e-18,1.3892009373538678,-3.0704596022952516e-17,-0.0004050634889239573,5.848375249743446e-15,0.0,0.0,0.0,15.000456786750451,4.959949472201205e-18,34.38314942717407,15.000652103174051,-6.970328271743867e-16,34.383064215134866,1.3716830968122428e-18,2.3564282046623883e-05,-3.044711621801908e-16,18.756412021204117,18.756412021204117,3.9273803411039805e-05,0.4113866178222846,0.4113866178222846,18.756412021204117,18.756412021204117,3.9273803411039805e-05,0.4113866178222846,0.4113866178222846,1.8581187766252718e-17,1.8581187766252718e-17
1762691369.942671,-6.693670747476074e-07,6.812790628777787e-20,0.09382711149994527,3.0,0.0,1.5,-7.106852609995244e-19,-6.09056984702145e-06,5.095552450155264e-17,-4.386887293580165e-05,3.2369923917043256e-18,1.3892009373538678,-3.0704596022952516e-17,-0.0004050634889239573,5.848375249743446e-15,0.0,0.0,0.0,15.000442035564735,-3.2710563448482247e-17,34.3408550689616,15.000651190662916,-8.214714297439137e-16,34.34076370708471,1.937874110262778e-18,2.3298459369689764e-05,-3.1789602616316113e-16,18.73702832078087,18.73702832078087,3.8830765616149606e-05,0.41183797384830845,0.41183797384830845,18.73702832078087,18.73702832078087,3.8830765616149606e-05,0.41183797384830845,0.41183797384830845,2.192107029140891e-17,2.192107029140891e-17
1762691369.9442024,-6.693670747476074e-07,6.812790628777787e-20,0.09382711149994527,3.0,0.0,1.5,-7.106852609995244e-19,-6.09056984702145e-06,5.095552450155264e-17,-4.386887293580165e-05,3.2369923917043256e-18,1.3892009373538678,-3.0704596022952516e-17,-0.0004050634889239573,5.848375249743446e-15,0.0,0.0,0.0,15.000442035564735,-3.2710563448482247e-17,34.3408550689616,15.000651190662916,-8.214714297439137e-16,34.34076370708471,1.937874110262778e-18,2.3298459369689764e-05,-3.1789602616316113e-16,18.73702832078087,18.73702832078087,3.8830765616149606e-05,0.41183797384830845,0.41183797384830845,18.73702832078087,18.73702832078087,3.8830765616149606e-05,0.41183797384830845,0.41183797384830845,2.192107029140891e-17,2.192107029140891e-17
1762691369.9460862,-7.167952787417577e-07,2.957464716505256e-19,0.09521648820884668,3.0,0.0,1.5,-6.188897395816431e-19,-6.539905709041251e-06,5.893097785103974e-17,-4.137916263581438e-05,8.784775176225092e-17,1.3889413234070511,-2.542486813766769e-16,-0.00039005946923926534,6.578124495525863e-15,0.0,0.0,0.0,15.000442035564735,-3.2710563448482247e-17,34.3408550689616,15.000651190662916,-8.214714297439137e-16,34.34076370708471,1.937874110262778e-18,2.3298459369689764e-05,-3.1789602616316113e-16,18.73702832078087,18.73702832078087,3.8830765616149606e-05,0.41183797384830845,0.41183797384830845,18.73702832078087,18.73702832078087,3.8830765616149606e-05,0.41183797384830845,0.41183797384830845,2.192107029140891e-17,2.192107029140891e-17
1762691369.947682,-7.167952787417577e-07,2.957464716505256e-19,0.09521648820884668,3.0,0.0,1.5,-6.188897395816431e-19,-6.539905709041251e-06,5.893097785103974e-17,-4.137916263581438e-05,8.784775176225092e-17,1.3889413234070511,-2.542486813766769e-16,-0.00039005946923926534,6.578124495525863e-15,0.0,0.0,0.0,15.000417375602751,-8.799562499807617e-16,34.336504324885254,15.000641932782626,-1.7851959636041795e-15,34.336406222835734,1.3073099782848028e-17,2.2772926316460584e-05,-3.5836774580539933e-16,18.735030319086935,18.735030319086935,3.7954877194100976e-05,0.4118842892707527,0.4118842892707526,18.735030319086935,18.735030319086935,3.7954877194100976e-05,0.4118842892707527,0.4118842892707526,4.764326326671198e-17,4.764326326671198e-17
1762691369.9494205,-7.167952787417577e-07,2.957464716505256e-19,0.09521648820884668,3.0,0.0,1.5,-6.188897395816431e-19,-6.539905709041251e-06,5.893097785103974e-17,-4.137916263581438e-05,8.784775176225092e-17,1.3889413234070511,-2.542486813766769e-16,-0.00039005946923926534,6.578124495525863e-15,0.0,0.0,0.0,15.000417375602751,-8.799562499807617e-16,34.336504324885254,15.000641932782626,-1.7851959636041795e-15,34.336406222835734,1.3073099782848028e-17,2.2772926316460584e-05,-3.5836774580539933e-16,18.735030319086935,18.735030319086935,3.7954877194100976e-05,0.4118842892707527,0.4118842892707526,18.735030319086935,18.735030319086935,3.7954877194100976e-05,0.4118842892707527,0.4118842892707526,4.764326326671198e-17,4.764326326671198e-17
1762691369.9515347,-6.997001811442712e-07,3.3980498944550955e-19,0.09660547374959387,3.0,0.0,1.5,-7.443313284887528e-19,-9.456539154561119e-06,8.04629439779155e-17,4.608050012275875e-05,1.813854666411112e-16,1.3882121683194337,-1.520630654532846e-17,-0.004835211729845482,3.417921885571246e-14,0.0,0.0,0.0,15.000417375602751,-8.799562499807617e-16,34.336504324885254,15.000641932782626,-1.7851959636041795e-15,34.336406222835734,1.3073099782848028e-17,2.2772926316460584e-05,-3.5836774580539933e-16,18.735030319086935,18.735030319086935,3.7954877194100976e-05,0.4118842892707527,0.4118842892707526,18.735030319086935,18.735030319086935,3.7954877194100976e-05,0.4118842892707527,0.4118842892707526,4.764326326671198e-17,4.764326326671198e-17
1762691369.9533656,-6.997001811442712e-07,3.3980498944550955e-19,0.09660547374959387,3.0,0.0,1.5,-7.443313284887528e-19,-9.456539154561119e-06,8.04629439779155e-17,4.608050012275875e-05,1.813854666411112e-16,1.3882121683194337,-1.520630654532846e-17,-0.004835211729845482,3.417921885571246e-14,0.0,0.0,0.0,14.999542693499682,-1.8155536913583394e-15,34.33685094805771,14.999867400604435,-3.048018943102145e-15,34.33670910275962,4.437565964819364e-18,0.0002464888560694842,-1.7491894719855109e-15,18.734843221643153,18.734843221643153,0.000410814760115807,0.411866094802198,0.4118660948021978,18.734843221643153,18.734843221643153,0.000410814760115807,0.411866094802198,0.4118660948021978,8.134626233703856e-17,8.134626233703856e-17
1762691369.9549556,-6.997001811442712e-07,3.3980498944550955e-19,0.09660547374959387,3.0,0.0,1.5,-7.443313284887528e-19,-9.456539154561119e-06,8.04629439779155e-17,4.608050012275875e-05,1.813854666411112e-16,1.3882121683194337,-1.520630654532846e-17,-0.004835211729845482,3.417921885571246e-14,0.0,0.0,0.0,14.999542693499682,-1.8155536913583394e-15,34.33685094805771,14.999867400604435,-3.048018943102145e-15,34.33670910275962,4.437565964819364e-18,0.0002464888560694842,-1.7491894719855109e-15,18.734843221643153,18.734843221643153,0.000410814760115807,0.411866094802198,0.4118660948021978,18.734843221643153,18.734843221643153,0.000410814760115807,0.411866094802198,0.4118660948021978,8.134626233703856e-17,8.134626233703856e-17
1762691369.956589,-5.949714233075057e-07,5.211890443086247e-19,0.0979932414380294,3.0,0.0,1.5,-7.508956067097231e-19,-1.6123260631012125e-05,2.378334904005381e-16,0.00013290985739137677,1.8140454543443223e-16,1.38732319721693,7.599543341662463e-18,-0.008477951754252757,2.8056192091814244e-13,0.0,0.0,0.0,14.999542693499682,-1.8155536913583394e-15,34.33685094805771,14.999867400604435,-3.048018943102145e-15,34.33670910275962,4.437565964819364e-18,0.0002464888560694842,-1.7491894719855109e-15,18.734843221643153,18.734843221643153,0.000410814760115807,0.411866094802198,0.4118660948021978,18.734843221643153,18.734843221643153,0.000410814760115807,0.411866094802198,0.4118660948021978,8.134626233703856e-17,8.134626233703856e-17
1762691369.9582691,-5.949714233075057e-07,5.211890443086247e-19,0.0979932414380294,3.0,0.0,1.5,-7.508956067097231e-19,-1.6123260631012125e-05,2.378334904005381e-16,0.00013290985739137677,1.8140454543443223e-16,1.38732319721693,7.599543341662463e-18,-0.008477951754252757,2.8056192091814244e-13,0.0,0.0,0.0,14.9986738762832,-1.8166513995658648e-15,34.33880182064056,14.999227527785164,-5.409623032777882e-15,34.338559988649195,4.7566320565898996e-17,0.00043195921802779465,-1.4147015365215414e-14,18.735421573747868,18.735421573747853,0.0007199320300463244,0.411833974771877,0.4118339747718752,18.735421573747868,18.735421573747853,0.0007199320300463244,0.411833974771877,0.4118339747718752,1.4436886331818294e-16,1.4436886331818294e-16
1762691369.9600291,-5.949714233075057e-07,5.211890443086247e-19,0.0979932414380294,3.0,0.0,1.5,-7.508956067097231e-19,-1.6123260631012125e-05,2.378334904005381e-16,0.00013290985739137677,1.8140454543443223e-16,1.38732319721693,7.599543341662463e-18,-0.008477951754252757,2.8056192091814244e-13,0.0,0.0,0.0,14.9986738762832,-1.8166513995658648e-15,34.33880182064056,14.999227527785164,-5.409623032777882e-15,34.338559988649195,4.7566320565898996e-17,0.00043195921802779465,-1.4147015365215414e-14,18.735421573747868,18.735421573747853,0.0007199320300463244,0.411833974771877,0.4118339747718752,18.735421573747868,18.735421573747853,0.0007199320300463244,0.411833974771877,0.4118339747718752,1.4436886331818294e-16,1.4436886331818294e-16
1762691369.961718,-3.910054823614382e-07,7.026788475222703e-19,0.09938012029121651,3.0,0.0,1.5,-7.387954663814344e-19,-2.637112982750291e-05,7.342814509175914e-16,0.00022754354490014497,1.8145333470949178e-16,1.3864344957414014,2.021332956977104e-17,-0.011998031957106671,7.123342587549338e-13,0.0,0.0,0.0,14.9986738762832,-1.8166513995658648e-15,34.33880182064056,14.999227527785164,-5.409623032777882e-15,34.338559988649195,4.7566320565898996e-17,0.00043195921802779465,-1.4147015365215414e-14,18.735421573747868,18.735421573747853,0.0007199320300463244,0.411833974771877,0.4118339747718752,18.735421573747868,18.735421573747853,0.0007199320300463244,0.411833974771877,0.4118339747718752,1.4436886331818294e-16,1.4436886331818294e-16
1762691369.9632604,-3.910054823614382e-07,7.026788475222703e-19,0.09938012029121651,3.0,0.0,1.5,-7.387954663814344e-19,-2.637112982750291e-05,7.342814509175914e-16,0.00022754354490014497,1.8145333470949178e-16,1.3864344957414014,2.021332956977104e-17,-0.011998031957106671,7.123342587549338e-13,0.0,0.0,0.0,14.997726519578409,-1.8180467413325275e-15,34.3407544411299,14.998632118857062,-1.2855969632079428e-14,34.340358922195875,1.702860743104422e-16,0.0006130871627675568,-3.5983863359077904e-14,18.735988355360057,18.73598835536002,0.001021811937945928,0.4118034217455867,0.41180342174558227,18.735988355360057,18.73598835536002,0.001021811937945928,0.4118034217455867,0.41180342174558227,3.4308223799684307e-16,3.4308223799684307e-16
1762691369.964845,-3.910054823614382e-07,7.026788475222703e-19,0.09938012029121651,3.0,0.0,1.5,-7.387954663814344e-19,-2.637112982750291e-05,7.342814509175914e-16,0.00022754354490014497,1.8145333470949178e-16,1.3864344957414014,2.021332956977104e-17,-0.011998031957106671,7.123342587549338e-13,0.0,0.0,0.0,14.997726519578409,-1.8180467413325275e-15,34.3407544411299,14.998632118857062,-1.2855969632079428e-14,34.340358922195875,1.702860743104422e-16,0.0006130871627675568,-3.5983863359077904e-14,18.735988355360057,18.73598835536002,0.001021811937945928,0.4118034217455867,0.41180342174558227,18.735988355360057,18.73598835536002,0.001021811937945928,0.4118034217455867,0.41180342174558227,3.4308223799684307e-16,3.4308223799684307e-16
1762691369.9665656,-8.016217630506506e-08,8.843104043228353e-19,0.10076611057063349,3.0,0.0,1.5,-7.374948583629195e-19,-4.0079088077537804e-05,1.7530268747558158e-15,0.0003302283860981724,1.8158024874232408e-16,1.3855460469990246,2.255388800671485e-17,-0.015398643153551427,1.3251570835142542e-12,0.0,0.0,0.0,14.997726519578409,-1.8180467413325275e-15,34.3407544411299,14.998632118857062,-1.2855969632079428e-14,34.340358922195875,1.702860743104422e-16,0.0006130871627675568,-3.5983863359077904e-14,18.735988355360057,18.73598835536002,0.001021811937945928,0.4118034217455867,0.41180342174558227,18.735988355360057,18.73598835536002,0.001021811937945928,0.4118034217455867,0.41180342174558227,3.4308223799684307e-16,3.4308223799684307e-16
1762691369.968175,-8.016217630506506e-08,8.843104043228353e-19,0.10076611057063349,3.0,0.0,1.5,-7.374948583629195e-19,-4.0079088077537804e-05,1.7530268747558158e-15,0.0003302283860981724,1.8158024874232408e-16,1.3855460469990246,2.255388800671485e-17,-0.015398643153551427,1.3251570835142542e-12,0.0,0.0,0.0,14.996698116949903,-1.820224039444852e-15,34.34270897715659,14.998074529362603,-2.8135165999056308e-14,34.34210789558913,4.0733590912781214e-16,0.0007899717017109752,-6.713438149732003e-14,18.736543071335518,18.73654307133545,0.0013166195028516253,0.41177425351757363,0.41177425351756547,18.736543071335518,18.73654307133545,0.0013166195028516253,0.41177425351757363,0.41177425351756547,7.508099517594448e-16,7.508099517594448e-16
1762691369.9696748,-8.016217630506506e-08,8.843104043228353e-19,0.10076611057063349,3.0,0.0,1.5,-7.374948583629195e-19,-4.0079088077537804e-05,1.7530268747558158e-15,0.0003302283860981724,1.8158024874232408e-16,1.3855460469990246,2.255388800671485e-17,-0.015398643153551427,1.3251570835142542e-12,0.0,0.0,0.0,14.996698116949903,-1.820224039444852e-15,34.34270897715659,14.998074529362603,-2.8135165999056308e-14,34.34210789558913,4.0733590912781214e-16,0.0007899717017109752,-6.713438149732003e-14,18.736543071335518,18.73654307133545,0.0013166195028516253,0.41177425351757363,0.41177425351756547,18.736543071335518,18.73654307133545,0.0013166195028516253,0.41177425351757363,0.41177425351756547,7.508099517594448e-16,7.508099517594448e-16
1762691369.971231,3.454488506763102e-07,1.0662220417814624e-18,0.10215121252055583,3.0,0.0,1.5,-7.790595150269075e-19,-5.712922811139363e-05,3.4729995509265703e-15,0.00044120288000222454,1.8186396446968664e-16,1.3846578333352406,-7.891352832908762e-18,-0.018682896336603902,2.1147890404129993e-12,0.0,0.0,0.0,14.996698116949903,-1.820224039444852e-15,34.34270897715659,14.998074529362603,-2.8135165999056308e-14,34.34210789558913,4.0733590912781214e-16,0.0007899717017109752,-6.713438149732003e-14,18.736543071335518,18.73654307133545,0.0013166195028516253,0.41177425351757363,0.41177425351756547,18.736543071335518,18.73654307133545,0.0013166195028516253,0.41177425351757363,0.41177425351756547,7.508099517594448e-16,7.508099517594448e-16
1762691369.97259,3.454488506763102e-07,1.0662220417814624e-18,0.10215121252055583,3.0,0.0,1.5,-7.790595150269075e-19,-5.712922811139363e-05,3.4729995509265703e-15,0.00044120288000222454,1.8186396446968664e-16,1.3846578333352406,-7.891352832908762e-18,-0.018682896336603902,2.1147890404129993e-12,0.0,0.0,0.0,14.995586243955726,-1.8239707549057708e-15,34.34466560404483,14.997548303719448,-5.393039091712066e-14,34.343808861731915,7.909421832694167e-16,0.000962709430870354,-1.0747594588623654e-13,18.737085248683794,18.737085248683687,0.0016045157181172568,0.41174629290156695,0.41174629290155385,18.737085248683794,18.737085248683687,0.0016045157181172568,0.41174629290156695,0.41174629290155385,1.4391350149007089e-15,1.4391350149007089e-15
1762691369.9740696,3.454488506763102e-07,1.0662220417814624e-18,0.10215121252055583,3.0,0.0,1.5,-7.790595150269075e-19,-5.712922811139363e-05,3.4729995509265703e-15,0.00044120288000222454,1.8186396446968664e-16,1.3846578333352406,-7.891352832908762e-18,-0.018682896336603902,2.1147890404129993e-12,0.0,0.0,0.0,14.995586243955726,-1.8239707549057708e-15,34.34466560404483,14.997548303719448,-5.393039091712066e-14,34.343808861731915,7.909421832694167e-16,0.000962709430870354,-1.0747594588623654e-13,18.737085248683794,18.737085248683687,0.0016045157181172568,0.41174629290156695,0.41174629290155385,18.737085248683794,18.737085248683687,0.0016045157181172568,0.41174629290156695,0.41174629290155385,1.4391350149007089e-15,1.4391350149007089e-15
1762691369.9757185,8.939596926167026e-07,1.2486344252443362e-18,0.10353542636729562,3.0,0.0,1.5,-9.255614233607417e-19,-7.740671458845435e-05,6.068937094784095e-15,0.0005606974102918082,1.8241972935652186e-16,1.383769836352849,-7.336166221532775e-17,-0.021853824681130517,3.0770866514534786e-12,0.0,0.0,0.0,14.995586243955726,-1.8239707549057708e-15,34.34466560404483,14.997548303719448,-5.393039091712066e-14,34.343808861731915,7.909421832694167e-16,0.000962709430870354,-1.0747594588623654e-13,18.737085248683794,18.737085248683687,0.0016045157181172568,0.41174629290156695,0.41174629290155385,18.737085248683794,18.737085248683687,0.0016045157181172568,0.41174629290156695,0.41174629290155385,1.4391350149007089e-15,1.4391350149007089e-15
1762691369.9772778,8.939596926167026e-07,1.2486344252443362e-18,0.10353542636729562,3.0,0.0,1.5,-9.255614233607417e-19,-7.740671458845435e-05,6.068937094784095e-15,0.0005606974102918082,1.8241972935652186e-16,1.383769836352849,-7.336166221532775e-17,-0.021853824681130517,3.0770866514534786e-12,0.0,0.0,0.0,14.994388556098622,-1.8304404656914367e-15,34.34662450463504,14.997047170534389,-9.286223022370539e-14,34.34546373538176,1.348935663891708e-15,0.0011313945913121026,-1.5688873696829316e-13,18.7376144360505,18.737614436050343,0.0018856576521868377,0.41171936760366706,0.41171936760364786,18.7376144360505,18.737614436050343,0.0018856576521868377,0.41171936760366706,0.41171936760364786,2.4779629909835845e-15,2.4779629909835845e-15
1762691369.9786599,8.939596926167026e-07,1.2486344252443362e-18,0.10353542636729562,3.0,0.0,1.5,-9.255614233607417e-19,-7.740671458845435e-05,6.068937094784095e-15,0.0005606974102918082,1.8241972935652186e-16,1.383769836352849,-7.336166221532775e-17,-0.021853824681130517,3.0770866514534786e-12,0.0,0.0,0.0,14.994388556098622,-1.8304404656914367e-15,34.34662450463504,14.997047170534389,-9.286223022370539e-14,34.34546373538176,1.348935663891708e-15,0.0011313945913121026,-1.5688873696829316e-13,18.7376144360505,18.737614436050343,0.0018856576521868377,0.41171936760366706,0.41171936760364786,18.7376144360505,18.737614436050343,0.0018856576521868377,0.41171936760366706,0.41171936760364786,2.4779629909835845e-15,2.4779629909835845e-15
1762691369.9801223,1.5737359853901896e-06,1.4319475025561223e-18,0.10491875231846,3.0,0.0,1.5,-1.2495436871858757e-18,-0.00010079970725189077,9.711479465992365e-15,0.0006889344483021804,1.8340553891180644e-16,1.3828820369311268,-1.9291957735140776e-16,-0.02491438548179584,4.2079995847706925e-12,0.0,0.0,0.0,14.994388556098622,-1.8304404656914367e-15,34.34662450463504,14.997047170534389,-9.286223022370539e-14,34.34546373538176,1.348935663891708e-15,0.0011313945913121026,-1.5688873696829316e-13,18.7376144360505,18.737614436050343,0.0018856576521868377,0.41171936760366706,0.41171936760364786,18.7376144360505,18.737614436050343,0.0018856576521868377,0.41171936760366706,0.41171936760364786,2.4779629909835845e-15,2.4779629909835845e-15
1762691369.981629,1.5737359853901896e-06,1.4319475025561223e-18,0.10491875231846,3.0,0.0,1.5,-1.2495436871858757e-18,-0.00010079970725189077,9.711479465992365e-15,0.0006889344483021804,1.8340553891180644e-16,1.3828820369311268,-1.9291957735140776e-16,-0.02491438548179584,4.2079995847706925e-12,0.0,0.0,0.0,14.99310278683705,-1.8412151266308513e-15,34.34858586909643,14.996565038061991,-1.4748934314249437e-13,34.34707439422649,2.1068204973824784e-15,0.0012961191276303888,-2.1525552666879942e-13,18.73813020320792,18.7381302032077,0.002160198546050648,0.411693310099395,0.4116933100993689,18.73813020320792,18.7381302032077,0.002160198546050648,0.411693310099395,0.4116933100993689,3.935540567362623e-15,3.935540567362623e-15
1762691369.9832811,1.5737359853901896e-06,1.4319475025561223e-18,0.10491875231846,3.0,0.0,1.5,-1.2495436871858757e-18,-0.00010079970725189077,9.711479465992365e-15,0.0006889344483021804,1.8340553891180644e-16,1.3828820369311268,-1.9291957735140776e-16,-0.02491438548179584,4.2079995847706925e-12,0.0,0.0,0.0,14.99310278683705,-1.8412151266308513e-15,34.34858586909643,14.996565038061991,-1.4748934314249437e-13,34.34707439422649,2.1068204973824784e-15,0.0012961191276303888,-2.1525552666879942e-13,18.73813020320792,18.7381302032077,0.002160198546050648,0.411693310099395,0.4116933100993689,18.73813020320792,18.7381302032077,0.002160198546050648,0.411693310099395,0.4116933100993689,3.935540567362623e-15,3.935540567362623e-15
1762691369.9851024,2.3933689153309314e-06,1.6167181600698662e-18,0.10630119056222972,3.0,0.0,1.5,-1.8666415294023727e-18,-0.00012719928599705496,1.4567264041567263e-14,0.0008261287509402816,1.8502843577354035e-16,1.3819944152458319,-3.9861543817773864e-16,-0.027867462042735193,5.503570151837916e-12,0.0,0.0,0.0,14.99310278683705,-1.8412151266308513e-15,34.34858586909643,14.996565038061991,-1.4748934314249437e-13,34.34707439422649,2.1068204973824784e-15,0.0012961191276303888,-2.1525552666879942e-13,18.73813020320792,18.7381302032077,0.002160198546050648,0.411693310099395,0.4116933100993689,18.73813020320792,18.7381302032077,0.002160198546050648,0.411693310099395,0.4116933100993689,3.935540567362623e-15,3.935540567362623e-15
1762691369.9866114,2.3933689153309314e-06,1.6167181600698662e-18,0.10630119056222972,3.0,0.0,1.5,-1.8666415294023727e-18,-0.00012719928599705496,1.4567264041567263e-14,0.0008261287509402816,1.8502843577354035e-16,1.3819944152458319,-3.9861543817773864e-16,-0.027867462042735193,5.503570151837916e-12,0.0,0.0,0.0,14.99172674564602,-1.8583679485357754e-15,34.350549894730534,14.996095989773945,-2.2031092649429216e-13,34.348642679907684,3.0878115023922744e-15,0.001456972744963784,-2.8246169518783515e-13,18.738632140552063,18.738632140551776,0.0024282879082729732,0.41166795751395113,0.4116679575139167,18.738632140552063,18.738632140551776,0.0024282879082729732,0.41166795751395113,0.4116679575139167,5.8785221045436246e-15,5.8785221045436246e-15
1762691369.9881337,2.3933689153309314e-06,1.6167181600698662e-18,0.10630119056222972,3.0,0.0,1.5,-1.8666415294023727e-18,-0.00012719928599705496,1.4567264041567263e-14,0.0008261287509402816,1.8502843577354035e-16,1.3819944152458319,-3.9861543817773864e-16,-0.027867462042735193,5.503570151837916e-12,0.0,0.0,0.0,14.99172674564602,-1.8583679485357754e-15,34.350549894730534,14.996095989773945,-2.2031092649429216e-13,34.348642679907684,3.0878115023922744e-15,0.001456972744963784,-2.8246169518783515e-13,18.738632140552063,18.738632140551776,0.0024282879082729732,0.41166795751395113,0.4116679575139167,18.738632140552063,18.738632140551776,0.0024282879082729732,0.41166795751395113,0.4116679575139167,5.8785221045436246e-15,5.8785221045436246e-15
1762691369.9897444,3.361667427730628e-06,1.80375323943409e-18,0.10768274126665886,3.0,0.0,1.5,-2.9219619000335466e-18,-0.0001564993778059186,2.079901357084628e-14,0.0009724875536600692,1.875509632282566e-16,1.3811069507899796,-6.569205657023983e-16,-0.030715865520157863,6.959930111085872e-12,0.0,0.0,0.0,14.99172674564602,-1.8583679485357754e-15,34.350549894730534,14.996095989773945,-2.2031092649429216e-13,34.348642679907684,3.0878115023922744e-15,0.001456972744963784,-2.8246169518783515e-13,18.738632140552063,18.738632140551776,0.0024282879082729732,0.41166795751395113,0.4116679575139167,18.738632140552063,18.738632140551776,0.0024282879082729732,0.41166795751395113,0.4116679575139167,5.8785221045436246e-15,5.8785221045436246e-15
1762691369.991433,3.361667427730628e-06,1.80375323943409e-18,0.10768274126665886,3.0,0.0,1.5,-2.9219619000335466e-18,-0.0001564993778059186,2.079901357084628e-14,0.0009724875536600692,1.875509632282566e-16,1.3811069507899796,-6.569205657023983e-16,-0.030715865520157863,6.959930111085872e-12,0.0,0.0,0.0,14.990258316126262,-1.8845283984797753e-15,34.35251678576691,14.995634280036239,-3.137674844352467e-13,34.350170398995,4.309098797495028e-15,0.0016140429645914367,-3.58395205046369e-13,18.73911985860653,18.73911985860616,0.0026900716076523946,0.41164315150558534,0.41164315150554187,18.73911985860653,18.73911985860616,0.0026900716076523946,0.41164315150558534,0.41164315150554187,8.371990968699157e-15,8.371990968699157e-15
1762691369.9929755,3.361667427730628e-06,1.80375323943409e-18,0.10768274126665886,3.0,0.0,1.5,-2.9219619000335466e-18,-0.0001564993778059186,2.079901357084628e-14,0.0009724875536600692,1.875509632282566e-16,1.3811069507899796,-6.569205657023983e-16,-0.030715865520157863,6.959930111085872e-12,0.0,0.0,0.0,14.990258316126262,-1.8845283984797753e-15,34.35251678576691,14.995634280036239,-3.137674844352467e-13,34.350170398995,4.309098797495028e-15,0.0016140429645914367,-3.58395205046369e-13,18.73911985860653,18.73911985860616,0.0026900716076523946,0.41164315150558534,0.41164315150554187,18.73911985860653,18.73911985860616,0.0026900716076523946,0.41164315150558534,0.41164315150554187,8.371990968699157e-15,8.371990968699157e-15
1762691369.9946396,4.4876506302288955e-06,1.9942310949258896e-18,0.10906340457899605,3.0,0.0,1.5,-4.5666467095730556e-18,-0.00018859668550107628,2.856562808102813e-14,0.0011282107586298245,1.912975453351659e-16,1.3802196223952856,-1.0269816063622077e-15,-0.03346233671905667,8.573299604053806e-12,0.0,0.0,0.0,14.990258316126262,-1.8845283984797753e-15,34.35251678576691,14.995634280036239,-3.137674844352467e-13,34.350170398995,4.309098797495028e-15,0.0016140429645914367,-3.58395205046369e-13,18.73911985860653,18.73911985860616,0.0026900716076523946,0.41164315150558534,0.41164315150554187,18.73911985860653,18.73911985860616,0.0026900716076523946,0.41164315150558534,0.41164315150554187,8.371990968699157e-15,8.371990968699157e-15
1762691369.9962034,4.4876506302288955e-06,1.9942310949258896e-18,0.10906340457899605,3.0,0.0,1.5,-4.5666467095730556e-18,-0.00018859668550107628,2.856562808102813e-14,0.0011282107586298245,1.912975453351659e-16,1.3802196223952856,-1.0269816063622077e-15,-0.03346233671905667,8.573299604053806e-12,0.0,0.0,0.0,14.988695454160549,-1.9229466088263837e-15,34.35448675315217,14.995174329891597,-4.3024131826419355e-13,34.35165932391391,5.789938320850814e-15,0.00176741517814436,-4.429464192927128e-13,18.739592987533136,18.73959298753268,0.0029456919635739336,0.4116187381520017,0.4116187381519479,18.739592987533136,18.73959298753268,0.0029456919635739336,0.4116187381520017,0.4116187381519479,1.1479473394924449e-14,1.1479473394924449e-14
1762691369.9975998,4.4876506302288955e-06,1.9942310949258896e-18,0.10906340457899605,3.0,0.0,1.5,-4.5666467095730556e-18,-0.00018859668550107628,2.856562808102813e-14,0.0011282107586298245,1.912975453351659e-16,1.3802196223952856,-1.0269816063622077e-15,-0.03346233671905667,8.573299604053806e-12,0.0,0.0,0.0,14.988695454160549,-1.9229466088263837e-15,34.35448675315217,14.995174329891597,-4.3024131826419355e-13,34.35165932391391,5.789938320850814e-15,0.00176741517814436,-4.429464192927128e-13,18.739592987533136,18.73959298753268,0.0029456919635739336,0.4116187381520017,0.4116187381519479,18.739592987533136,18.73959298753268,0.0029456919635739336,0.4116187381520017,0.4116187381519479,1.1479473394924449e-14,1.1479473394924449e-14
1762691369.9993029,5.780540386245426e-06,2.1896810321112203e-18,0.1104431806250281,3.0,0.0,1.5,-6.99646383826061e-18,-0.00022339061827399628,3.802226878038156e-14,0.001293491118220135,1.9666085528980338e-16,1.3793324082541802,-1.4853275164123285e-15,-0.03610954784517083,1.0339982815253075e-11,0.0,0.0,0.0,14.988695454160549,-1.9229466088263837e-15,34.35448675315217,14.995174329891597,-4.3024131826419355e-13,34.35165932391391,5.789938320850814e-15,0.00176741517814436,-4.429464192927128e-13,18.739592987533136,18.73959298753268,0.0029456919635739336,0.4116187381520017,0.4116187381519479,18.739592987533136,18.73959298753268,0.0029456919635739336,0.4116187381520017,0.4116187381519479,1.1479473394924449e-14,1.1479473394924449e-14
1762691370.0008154,5.780540386245426e-06,2.1896810321112203e-18,0.1104431806250281,3.0,0.0,1.5,-6.99646383826061e-18,-0.00022339061827399628,3.802226878038156e-14,0.001293491118220135,1.9666085528980338e-16,1.3793324082541802,-1.4853275164123285e-15,-0.03610954784517083,1.0339982815253075e-11,0.0,0.0,0.0,14.987036186115866,-1.977556958058571e-15,34.356460014333074,14.994710722944548,-5.7205902534806e-13,34.35311119382967,7.543083236893506e-15,0.0019171727004665441,-5.360081291447277e-13,18.740051176649683,18.74005117664913,0.003195287834110907,0.41159456783970594,0.41159456783964093,18.740051176649683,18.74005117664913,0.003195287834110907,0.41159456783970594,0.41159456783964093,1.526300595328311e-14,1.526300595328311e-14
1762691370.00225,5.780540386245426e-06,2.1896810321112203e-18,0.1104431806250281,3.0,0.0,1.5,-6.99646383826061e-18,-0.00022339061827399628,3.802226878038156e-14,0.001293491118220135,1.9666085528980338e-16,1.3793324082541802,-1.4853275164123285e-15,-0.03610954784517083,1.0339982815253075e-11,0.0,0.0,0.0,14.987036186115866,-1.977556958058571e-15,34.356460014333074,14.994710722944548,-5.7205902534806e-13,34.35311119382967,7.543083236893506e-15,0.0019171727004665441,-5.360081291447277e-13,18.740051176649683,18.74005117664913,0.003195287834110907,0.41159456783970594,0.41159456783964093,18.740051176649683,18.74005117664913,0.003195287834110907,0.41159456783970594,0.41159456783964093,1.526300595328311e-14,1.526300595328311e-14
1762691370.0036998,7.2497540937322895e-06,2.3921708112261306e-18,0.11182206950844625,3.0,0.0,1.5,-1.040517869364985e-17,-0.0002607832239433318,4.932044416110735e-14,0.001468514413937589,2.0410831925047481e-16,1.3784452859422984,-2.067992755694711e-15,-0.03866010421331925,1.22563682552599e-11,0.0,0.0,0.0,14.987036186115866,-1.977556958058571e-15,34.356460014333074,14.994710722944548,-5.7205902534806e-13,34.35311119382967,7.543083236893506e-15,0.0019171727004665441,-5.360081291447277e-13,18.740051176649683,18.74005117664913,0.003195287834110907,0.41159456783970594,0.41159456783964093,18.740051176649683,18.74005117664913,0.003195287834110907,0.41159456783970594,0.41159456783964093,1.526300595328311e-14,1.526300595328311e-14
1762691370.005069,7.2497540937322895e-06,2.3921708112261306e-18,0.11182206950844625,3.0,0.0,1.5,-1.040517869364985e-17,-0.0002607832239433318,4.932044416110735e-14,0.001468514413937589,2.0410831925047481e-16,1.3784452859422984,-2.067992755694711e-15,-0.03866010421331925,1.22563682552599e-11,0.0,0.0,0.0,14.985278607090153,-2.0530440465608915e-15,34.3584367930348,14.99423820134655,-7.41491105826003e-13,34.35452771548986,9.582036221474188e-15,0.0020633968211596857,-6.374754357932844e-13,18.74049409395476,18.740494093954105,0.0034389947019328095,0.4115704951562201,0.41157049515614264,18.74049409395476,18.740494093954105,0.0034389947019328095,0.4115704951562201,0.41157049515614264,1.978312583725323e-14,1.978312583725323e-14
1762691370.0065868,7.2497540937322895e-06,2.3921708112261306e-18,0.11182206950844625,3.0,0.0,1.5,-1.040517869364985e-17,-0.0002607832239433318,4.932044416110735e-14,0.001468514413937589,2.0410831925047481e-16,1.3784452859422984,-2.067992755694711e-15,-0.03866010421331925,1.22563682552599e-11,0.0,0.0,0.0,14.985278607090153,-2.0530440465608915e-15,34.3584367930348,14.99423820134655,-7.41491105826003e-13,34.35452771548986,9.582036221474188e-15,0.0020633968211596857,-6.374754357932844e-13,18.74049409395476,18.740494093954105,0.0034389947019328095,0.4115704951562201,0.41157049515614264,18.74049409395476,18.740494093954105,0.0034389947019328095,0.4115704951562201,0.41157049515614264,1.978312583725323e-14,1.978312583725323e-14
1762691370.0083637,8.904897644650578e-06,2.6042099169932072e-18,0.11320007131023567,3.0,0.0,1.5,-1.505972384420218e-17,-0.000300679122900212,6.260809174146982e-14,0.0016534596309255205,2.1418827061188484e-16,1.3775582324413673,-2.7350915099661237e-15,-0.041116545913194476,1.431892572703434e-11,0.0,0.0,0.0,14.985278607090153,-2.0530440465608915e-15,34.3584367930348,14.99423820134655,-7.41491105826003e-13,34.35452771548986,9.582036221474188e-15,0.0020633968211596857,-6.374754357932844e-13,18.74049409395476,18.740494093954105,0.0034389947019328095,0.4115704951562201,0.41157049515614264,18.74049409395476,18.740494093954105,0.0034389947019328095,0.4115704951562201,0.41157049515614264,1.978312583725323e-14,1.978312583725323e-14
1762691370.0098948,8.904897644650578e-06,2.6042099169932072e-18,0.11320007131023567,3.0,0.0,1.5,-1.505972384420218e-17,-0.000300679122900212,6.260809174146982e-14,0.0016534596309255205,2.1418827061188484e-16,1.3775582324413673,-2.7350915099661237e-15,-0.041116545913194476,1.431892572703434e-11,0.0,0.0,0.0,14.983420879202525,-2.1549037557035903e-15,34.36041731903515,14.993751661878758,-9.4075568328738e-13,34.35591056402786,1.1914473542457885e-14,0.002206166854844515,-7.472458320822565e-13,18.74092142565994,18.740921425659167,0.0036769447580741917,0.4115463787850816,0.41154637878499084,18.74092142565994,18.740921425659167,0.0036769447580741917,0.4115463787850816,0.41154637878499084,2.5098970907570295e-14,2.5098970907570295e-14
1762691370.0113163,8.904897644650578e-06,2.6042099169932072e-18,0.11320007131023567,3.0,0.0,1.5,-1.505972384420218e-17,-0.000300679122900212,6.260809174146982e-14,0.0016534596309255205,2.1418827061188484e-16,1.3775582324413673,-2.7350915099661237e-15,-0.041116545913194476,1.431892572703434e-11,0.0,0.0,0.0,14.983420879202525,-2.1549037557035903e-15,34.36041731903515,14.993751661878758,-9.4075568328738e-13,34.35591056402786,1.1914473542457885e-14,0.002206166854844515,-7.472458320822565e-13,18.74092142565994,18.740921425659167,0.0036769447580741917,0.4115463787850816,0.41154637878499084,18.74092142565994,18.740921425659167,0.0036769447580741917,0.4115463787850816,0.41154637878499084,2.5098970907570295e-14,2.5098970907570295e-14
1762691370.012716,1.0755758560697679e-05,2.829041679979776e-18,0.1145771860880884,3.0,0.0,1.5,-2.1214285306782992e-17,-0.00034298544369850494,7.802965818735075e-14,0.0018484991281496822,2.275364697958203e-16,1.376671224162407,-3.581521868399866e-15,-0.04348134943367888,1.652420537193351e-11,0.0,0.0,0.0,14.983420879202525,-2.1549037557035903e-15,34.36041731903515,14.993751661878758,-9.4075568328738e-13,34.35591056402786,1.1914473542457885e-14,0.002206166854844515,-7.472458320822565e-13,18.74092142565994,18.740921425659167,0.0036769447580741917,0.4115463787850816,0.41154637878499084,18.74092142565994,18.740921425659167,0.0036769447580741917,0.4115463787850816,0.41154637878499084,2.5098970907570295e-14,2.5098970907570295e-14
1762691370.0143247,1.0755758560697679e-05,2.829041679979776e-18,0.1145771860880884,3.0,0.0,1.5,-2.1214285306782992e-17,-0.00034298544369850494,7.802965818735075e-14,0.0018484991281496822,2.275364697958203e-16,1.376671224162407,-3.581521868399866e-15,-0.04348134943367888,1.652420537193351e-11,0.0,0.0,0.0,14.9814612299257,-2.2895099063583116e-15,34.36240182793549,14.993246152129961,-1.172016673569862e-12,34.357261383729515,1.455288743447713e-14,0.002345560190170824,-8.65218865547732e-13,18.741332875729228,18.741332875728332,0.00390926698361804,0.4115220814035524,0.41152208140344737,18.741332875729228,18.741332875728332,0.00390926698361804,0.4115220814035524,0.41152208140344737,3.1268231596475684e-14,3.1268231596475684e-14
1762691370.0160348,1.0755758560697679e-05,2.829041679979776e-18,0.1145771860880884,3.0,0.0,1.5,-2.1214285306782992e-17,-0.00034298544369850494,7.802965818735075e-14,0.0018484991281496822,2.275364697958203e-16,1.376671224162407,-3.581521868399866e-15,-0.04348134943367888,1.652420537193351e-11,0.0,0.0,0.0,14.9814612299257,-2.2895099063583116e-15,34.36240182793549,14.993246152129961,-1.172016673569862e-12,34.357261383729515,1.455288743447713e-14,0.002345560190170824,-8.65218865547732e-13,18.741332875729228,18.741332875728332,0.00390926698361804,0.4115220814035524,0.41152208140344737,18.741332875729228,18.741332875728332,0.00390926698361804,0.4115220814035524,0.41152208140344737,3.1268231596475684e-14,3.1268231596475684e-14
1762691370.0176852,1.2812299300930123e-05,3.0705824003507304e-18,0.11595341387584,3.0,0.0,1.5,-2.917506134260279e-17,-0.00038761176024909496,9.572617890068655e-14,0.0020537988043832513,2.448823839876531e-16,1.3757842369691748,-4.548609386587519e-15,-0.04575692924671897,1.88688327547175e-11,0.0,0.0,0.0,14.9814612299257,-2.2895099063583116e-15,34.36240182793549,14.993246152129961,-1.172016673569862e-12,34.357261383729515,1.455288743447713e-14,0.002345560190170824,-8.65218865547732e-13,18.741332875729228,18.741332875728332,0.00390926698361804,0.4115220814035524,0.41152208140344737,18.741332875729228,18.741332875728332,0.00390926698361804,0.4115220814035524,0.41152208140344737,3.1268231596475684e-14,3.1268231596475684e-14
1762691370.0191917,1.2812299300930123e-05,3.0705824003507304e-18,0.11595341387584,3.0,0.0,1.5,-2.917506134260279e-17,-0.00038761176024909496,9.572617890068655e-14,0.0020537988043832513,2.448823839876531e-16,1.3757842369691748,-4.548609386587519e-15,-0.04575692924671897,1.88688327547175e-11,0.0,0.0,0.0,14.979397950459662,-2.4641767518783223e-15,34.36439056092905,14.992716866767424,-1.4373871185134893e-12,34.35858178876498,1.750033875802426e-14,0.002481652337607504,-9.912963973453823e-13,18.741728165426004,18.741728165424977,0.00413608722934584,0.41149746958296485,0.41149746958284456,18.741728165426004,18.741728165424977,0.00413608722934584,0.41149746958296485,0.41149746958284456,3.8347240601994304e-14,3.8347240601994304e-14
1762691370.020524,1.2812299300930123e-05,3.0705824003507304e-18,0.11595341387584,3.0,0.0,1.5,-2.917506134260279e-17,-0.00038761176024909496,9.572617890068655e-14,0.0020537988043832513,2.448823839876531e-16,1.3757842369691748,-4.548609386587519e-15,-0.04575692924671897,1.88688327547175e-11,0.0,0.0,0.0,14.979397950459662,-2.4641767518783223e-15,34.36439056092905,14.992716866767424,-1.4373871185134893e-12,34.35858178876498,1.750033875802426e-14,0.002481652337607504,-9.912963973453823e-13,18.741728165426004,18.741728165424977,0.00413608722934584,0.41149746958296485,0.41149746958284456,18.741728165426004,18.741728165424977,0.00413608722934584,0.41149746958296485,0.41149746958284456,3.8347240601994304e-14,3.8347240601994304e-14
1762691370.0219195,1.5084650737042092e-05,3.3335968742098633e-18,0.11732875468293016,3.0,0.0,1.5,-3.926796136449342e-17,-0.0004344700305782405,1.158353532434629e-13,0.0022695182601022595,2.670552708590345e-16,1.3748972462017885,-5.6846086134343006e-15,-0.0479456393517672,2.134951040610152e-11,0.0,0.0,0.0,14.979397950459662,-2.4641767518783223e-15,34.36439056092905,14.992716866767424,-1.4373871185134893e-12,34.35858178876498,1.750033875802426e-14,0.002481652337607504,-9.912963973453823e-13,18.741728165426004,18.741728165424977,0.00413608722934584,0.41149746958296485,0.41149746958284456,18.741728165426004,18.741728165424977,0.00413608722934584,0.41149746958296485,0.41149746958284456,3.8347240601994304e-14,3.8347240601994304e-14
1762691370.0233917,1.5084650737042092e-05,3.3335968742098633e-18,0.11732875468293016,3.0,0.0,1.5,-3.926796136449342e-17,-0.0004344700305782405,1.158353532434629e-13,0.0022695182601022595,2.670552708590345e-16,1.3748972462017885,-5.6846086134343006e-15,-0.0479456393517672,2.134951040610152e-11,0.0,0.0,0.0,14.977229394145294,-2.687220692961261e-15,34.36638376456747,14.992159143898206,-1.7389291203518991e-12,34.35987336388779,2.076360118881168e-14,0.0026145169760431143,-1.1253822878406462e-12,18.74210703286743,18.742107032866258,0.004357528293405191,0.41147241369162846,0.4114724136914919,18.74210703286743,18.742107032866258,0.004357528293405191,0.41147241369162846,0.4114724136914919,4.639097187158438e-14,4.639097187158438e-14
1762691370.0249398,1.5084650737042092e-05,3.3335968742098633e-18,0.11732875468293016,3.0,0.0,1.5,-3.926796136449342e-17,-0.0004344700305782405,1.158353532434629e-13,0.0022695182601022595,2.670552708590345e-16,1.3748972462017885,-5.6846086134343006e-15,-0.0479456393517672,2.134951040610152e-11,0.0,0.0,0.0,14.977229394145294,-2.687220692961261e-15,34.36638376456747,14.992159143898206,-1.7389291203518991e-12,34.35987336388779,2.076360118881168e-14,0.0026145169760431143,-1.1253822878406462e-12,18.74210703286743,18.742107032866258,0.004357528293405191,0.41147241369162846,0.4114724136914919,18.74210703286743,18.742107032866258,0.004357528293405191,0.41147241369162846,0.4114724136914919,4.639097187158438e-14,4.639097187158438e-14
1762691370.0265403,1.7583105792171482e-05,3.6237591231179004e-18,0.11870320849388732,3.0,0.0,1.5,-5.185692614524931e-17,-0.0004834745371110721,1.3849161972784608e-13,0.002495810955399328,2.9499022688822357e-16,1.3740102267004597,-7.021833199740499e-15,-0.05004977478177536,2.396301447321973e-11,0.0,0.0,0.0,14.977229394145294,-2.687220692961261e-15,34.36638376456747,14.992159143898206,-1.7389291203518991e-12,34.35987336388779,2.076360118881168e-14,0.0026145169760431143,-1.1253822878406462e-12,18.74210703286743,18.742107032866258,0.004357528293405191,0.41147241369162846,0.4114724136914919,18.74210703286743,18.742107032866258,0.004357528293405191,0.41147241369162846,0.4114724136914919,4.639097187158438e-14,4.639097187158438e-14
1762691370.0280263,1.7583105792171482e-05,3.6237591231179004e-18,0.11870320849388732,3.0,0.0,1.5,-5.185692614524931e-17,-0.0004834745371110721,1.3849161972784608e-13,0.002495810955399328,2.9499022688822357e-16,1.3740102267004597,-7.021833199740499e-15,-0.05004977478177536,2.396301447321973e-11,0.0,0.0,0.0,14.974953974917044,-2.9680210644982824e-15,34.36838169052597,14.991568461518842,-2.0786555153788727e-12,34.36113766510297,2.434715037880257e-14,0.002744225998226719,-1.2673824655637152e-12,18.742469232586387,18.742469232585062,0.004573709997044532,0.4114467878002315,0.4114467878000779,18.742469232586387,18.742469232585062,0.004573709997044532,0.4114467878002315,0.4114467878000779,5.545308597238923e-14,5.545308597238923e-14
1762691370.0293837,1.7583105792171482e-05,3.6237591231179004e-18,0.11870320849388732,3.0,0.0,1.5,-5.185692614524931e-17,-0.0004834745371110721,1.3849161972784608e-13,0.002495810955399328,2.9499022688822357e-16,1.3740102267004597,-7.021833199740499e-15,-0.05004977478177536,2.396301447321973e-11,0.0,0.0,0.0,14.974953974917044,-2.9680210644982824e-15,34.36838169052597,14.991568461518842,-2.0786555153788727e-12,34.36113766510297,2.434715037880257e-14,0.002744225998226719,-1.2673824655637152e-12,18.742469232586387,18.742469232585062,0.004573709997044532,0.4114467878002315,0.4114467878000779,18.742469232586387,18.742469232585062,0.004573709997044532,0.4114467878002315,0.4114467878000779,5.545308597238923e-14,5.545308597238923e-14
1762691370.030926,2.03181132392141e-05,3.947694268353202e-18,0.12007677526783742,3.0,0.0,1.5,-6.737237154713485e-17,-0.0005345418284422654,1.6382622952583371e-13,0.0027328243640203824,3.297343718431379e-16,1.373123152829288,-8.52188966850077e-15,-0.05207157307169914,2.6706192997447676e-11,0.0,0.0,0.0,14.974953974917044,-2.9680210644982824e-15,34.36838169052597,14.991568461518842,-2.0786555153788727e-12,34.36113766510297,2.434715037880257e-14,0.002744225998226719,-1.2673824655637152e-12,18.742469232586387,18.742469232585062,0.004573709997044532,0.4114467878002315,0.4114467878000779,18.742469232586387,18.742469232585062,0.004573709997044532,0.4114467878002315,0.4114467878000779,5.545308597238923e-14,5.545308597238923e-14
1762691370.0325754,2.03181132392141e-05,3.947694268353202e-18,0.12007677526783742,3.0,0.0,1.5,-6.737237154713485e-17,-0.0005345418284422654,1.6382622952583371e-13,0.0027328243640203824,3.297343718431379e-16,1.373123152829288,-8.52188966850077e-15,-0.05207157307169914,2.6706192997447676e-11,0.0,0.0,0.0,14.972570165793602,-3.3170821897731605e-15,34.37038459536794,14.990940434051168,-2.458531873540683e-12,34.362376220305954,2.8250557277435407e-14,0.0028708495550779827,-1.41720499985258e-12,18.742814535101022,18.74281453509954,0.004784749258463305,0.41142046958966827,0.4114204695894965,18.742814535101022,18.74281453509954,0.004784749258463305,0.41142046958966827,0.4114204695894965,6.558598413638758e-14,6.558598413638758e-14
1762691370.0340729,2.03181132392141e-05,3.947694268353202e-18,0.12007677526783742,3.0,0.0,1.5,-6.737237154713485e-17,-0.0005345418284422654,1.6382622952583371e-13,0.0027328243640203824,3.297343718431379e-16,1.373123152829288,-8.52188966850077e-15,-0.05207157307169914,2.6706192997447676e-11,0.0,0.0,0.0,14.972570165793602,-3.3170821897731605e-15,34.37038459536794,14.990940434051168,-2.458531873540683e-12,34.362376220305954,2.8250557277435407e-14,0.0028708495550779827,-1.41720499985258e-12,18.742814535101022,18.74281453509954,0.004784749258463305,0.41142046958966827,0.4114204695894965,18.742814535101022,18.74281453509954,0.004784749258463305,0.41142046958966827,0.4114204695894965,6.558598413638758e-14,6.558598413638758e-14
1762691370.0355704,2.3300271654731845e-05,4.313313828235717e-18,0.1214494549380366,3.0,0.0,1.5,-8.621873890011938e-17,-0.0005875906625568687,1.9196731709091604e-13,0.0029807001236260766,3.7245253558848644e-16,1.3722359985000574,-1.0255298247356741e-14,-0.05401321569044897,2.957596478962975e-11,0.0,0.0,0.0,14.972570165793602,-3.3170821897731605e-15,34.37038459536794,14.990940434051168,-2.458531873540683e-12,34.362376220305954,2.8250557277435407e-14,0.0028708495550779827,-1.41720499985258e-12,18.742814535101022,18.74281453509954,0.004784749258463305,0.41142046958966827,0.4114204695894965,18.742814535101022,18.74281453509954,0.004784749258463305,0.41142046958966827,0.4114204695894965,6.558598413638758e-14,6.558598413638758e-14
1762691370.0370142,2.3300271654731845e-05,4.313313828235717e-18,0.1214494549380366,3.0,0.0,1.5,-8.621873890011938e-17,-0.0005875906625568687,1.9196731709091604e-13,0.0029807001236260766,3.7245253558848644e-16,1.3722359985000574,-1.0255298247356741e-14,-0.05401321569044897,2.957596478962975e-11,0.0,0.0,0.0,14.970076497405465,-3.746091925025976e-15,34.37239274030925,14.990270808962112,-2.8804742992172983e-12,34.363590529893905,3.247753403766783e-14,0.0029944560988947842,-1.5747597202112708e-12,18.743142726491815,18.74314272649017,0.00499076016482464,0.4113933402612252,0.4113933402610344,18.743142726491815,18.74314272649017,0.00499076016482464,0.4113933402612252,0.4113933402610344,7.684075027466238e-14,7.684075027466238e-14
1762691370.03832,2.3300271654731845e-05,4.313313828235717e-18,0.1214494549380366,3.0,0.0,1.5,-8.621873890011938e-17,-0.0005875906625568687,1.9196731709091604e-13,0.0029807001236260766,3.7245253558848644e-16,1.3722359985000574,-1.0255298247356741e-14,-0.05401321569044897,2.957596478962975e-11,0.0,0.0,0.0,14.970076497405465,-3.746091925025976e-15,34.37239274030925,14.990270808962112,-2.8804742992172983e-12,34.363590529893905,3.247753403766783e-14,0.0029944560988947842,-1.5747597202112708e-12,18.743142726491815,18.74314272649017,0.00499076016482464,0.4113933402612252,0.4113933402610344,18.743142726491815,18.74314272649017,0.00499076016482464,0.4113933402612252,0.4113933402610344,7.684075027466238e-14,7.684075027466238e-14
1762691370.039896,2.654032352464328e-05,4.7297734419132926e-18,0.12282124741142829,3.0,0.0,1.5,-1.0884275622327485e-16,-0.0006425419514651885,2.230399697595564e-13,0.0032395741823766128,4.2443318533567964e-16,1.3713487371959892,-1.2168131256811057e-14,-0.055876829437199106,3.2569316248767115e-11,0.0,0.0,0.0,14.970076497405465,-3.746091925025976e-15,34.37239274030925,14.990270808962112,-2.8804742992172983e-12,34.363590529893905,3.247753403766783e-14,0.0029944560988947842,-1.5747597202112708e-12,18.743142726491815,18.74314272649017,0.00499076016482464,0.4113933402612252,0.4113933402610344,18.743142726491815,18.74314272649017,0.00499076016482464,0.4113933402612252,0.4113933402610344,7.684075027466238e-14,7.684075027466238e-14
1762691370.0414963,2.654032352464328e-05,4.7297734419132926e-18,0.12282124741142829,3.0,0.0,1.5,-1.0884275622327485e-16,-0.0006425419514651885,2.230399697595564e-13,0.0032395741823766128,4.2443318533567964e-16,1.3713487371959892,-1.2168131256811057e-14,-0.055876829437199106,3.2569316248767115e-11,0.0,0.0,0.0,14.96747155655861,-4.2679807205665964e-15,34.37440639098297,14.989555463465484,-3.3463527416696423e-12,34.36478206735107,3.7024402381815543e-14,0.003115112425485886,-1.7399585716597944e-12,18.743453607986286,18.74345360798446,0.005191854042476476,0.4113652844490644,0.4113652844488536,18.743453607986286,18.74345360798446,0.005191854042476476,0.4113652844490644,0.4113652844488536,8.926723995635409e-14,8.926723995635409e-14
1762691370.0430226,2.654032352464328e-05,4.7297734419132926e-18,0.12282124741142829,3.0,0.0,1.5,-1.0884275622327485e-16,-0.0006425419514651885,2.230399697595564e-13,0.0032395741823766128,4.2443318533567964e-16,1.3713487371959892,-1.2168131256811057e-14,-0.055876829437199106,3.2569316248767115e-11,0.0,0.0,0.0,14.96747155655861,-4.2679807205665964e-15,34.37440639098297,14.989555463465484,-3.3463527416696423e-12,34.36478206735107,3.7024402381815543e-14,0.003115112425485886,-1.7399585716597944e-12,18.743453607986286,18.74345360798446,0.005191854042476476,0.4113652844490644,0.4113652844488536,18.743453607986286,18.74345360798446,0.005191854042476476,0.4113652844490644,0.4113652844488536,8.926723995635409e-14,8.926723995635409e-14
1762691370.04451,3.004914949798432e-05,5.2075525102278135e-18,0.12419215256822393,3.0,0.0,1.5,-1.3575272765171214e-16,-0.0006993187072165414,2.571662944411532e-13,0.0035095769419358235,4.870934182211015e-16,1.370461341995406,-1.4309701749998078e-14,-0.05766448780294411,3.5683301231540616e-11,0.0,0.0,0.0,14.96747155655861,-4.2679807205665964e-15,34.37440639098297,14.989555463465484,-3.3463527416696423e-12,34.36478206735107,3.7024402381815543e-14,0.003115112425485886,-1.7399585716597944e-12,18.743453607986286,18.74345360798446,0.005191854042476476,0.4113652844490644,0.4113652844488536,18.743453607986286,18.74345360798446,0.005191854042476476,0.4113652844490644,0.4113652844488536,8.926723995635409e-14,8.926723995635409e-14
1762691370.0458896,3.004914949798432e-05,5.2075525102278135e-18,0.12419215256822393,3.0,0.0,1.5,-1.3575272765171214e-16,-0.0006993187072165414,2.571662944411532e-13,0.0035095769419358235,4.870934182211015e-16,1.370461341995406,-1.4309701749998078e-14,-0.05766448780294411,3.5683301231540616e-11,0.0,0.0,0.0,14.964753984833152,-4.896971944762683e-15,34.376425817204826,14.988790401303627,-3.857992573208119e-12,34.365952279809655,4.189158691924869e-14,0.003232883715255521,-1.912715162878334e-12,18.74374699555127,18.74374699554926,0.005388139525425868,0.41133619013493844,0.41133619013470685,18.74374699555127,18.74374699554926,0.005388139525425868,0.41133619013493844,0.41133619013470685,1.0291412315061658e-13,1.0291412315061658e-13
1762691370.0472076,3.004914949798432e-05,5.2075525102278135e-18,0.12419215256822393,3.0,0.0,1.5,-1.3575272765171214e-16,-0.0006993187072165414,2.571662944411532e-13,0.0035095769419358235,4.870934182211015e-16,1.370461341995406,-1.4309701749998078e-14,-0.05766448780294411,3.5683301231540616e-11,0.0,0.0,0.0,14.964753984833152,-4.896971944762683e-15,34.376425817204826,14.988790401303627,-3.857992573208119e-12,34.365952279809655,4.189158691924869e-14,0.003232883715255521,-1.912715162878334e-12,18.74374699555127,18.74374699554926,0.005388139525425868,0.41133619013493844,0.41133619013470685,18.74374699555127,18.74374699554926,0.005388139525425868,0.41133619013493844,0.41133619013470685,1.0291412315061658e-13,1.0291412315061658e-13
1762691370.0487359,3.38377627851233e-05,5.7587836205489905e-18,0.12556217026150773,3.0,0.0,1.5,-1.674349600658678e-16,-0.0007578459892575493,2.9446548589867095e-13,0.003790833396987606,5.61985089357116e-16,1.3695737855952657,-1.672664539053799e-14,-0.05937821229816908,3.891504064660753e-11,0.0,0.0,0.0,14.964753984833152,-4.896971944762683e-15,34.376425817204826,14.988790401303627,-3.857992573208119e-12,34.365952279809655,4.189158691924869e-14,0.003232883715255521,-1.912715162878334e-12,18.74374699555127,18.74374699554926,0.005388139525425868,0.41133619013493844,0.41133619013470685,18.74374699555127,18.74374699554926,0.005388139525425868,0.41133619013493844,0.41133619013470685,1.0291412315061658e-13,1.0291412315061658e-13
1762691370.0502741,3.38377627851233e-05,5.7587836205489905e-18,0.12556217026150773,3.0,0.0,1.5,-1.674349600658678e-16,-0.0007578459892575493,2.9446548589867095e-13,0.003790833396987606,5.61985089357116e-16,1.3695737855952657,-1.672664539053799e-14,-0.05937821229816908,3.891504064660753e-11,0.0,0.0,0.0,14.961922477216197,-5.648644811674797e-15,34.37845129273981,14.987971749607064,-4.417172671492888e-12,34.36710258858741,4.707837077313673e-14,0.003347833573266055,-2.0929449944851313e-12,18.744022719492744,18.74402271949054,0.005579722622110092,0.4113059485650821,0.41130594856482877,18.744022719492744,18.74402271949054,0.005579722622110092,0.4113059485650821,0.41130594856482877,1.1782883369266121e-13,1.1782883369266121e-13
1762691370.051688,3.38377627851233e-05,5.7587836205489905e-18,0.12556217026150773,3.0,0.0,1.5,-1.674349600658678e-16,-0.0007578459892575493,2.9446548589867095e-13,0.003790833396987606,5.61985089357116e-16,1.3695737855952657,-1.672664539053799e-14,-0.05937821229816908,3.891504064660753e-11,0.0,0.0,0.0,14.961922477216197,-5.648644811674797e-15,34.37845129273981,14.987971749607064,-4.417172671492888e-12,34.36710258858741,4.707837077313673e-14,0.003347833573266055,-2.0929449944851313e-12,18.744022719492744,18.74402271949054,0.005579722622110092,0.4113059485650821,0.41130594856482877,18.744022719492744,18.74402271949054,0.005579722622110092,0.4113059485650821,0.41130594856482877,1.1782883369266121e-13,1.1782883369266121e-13
1762691370.0531244,3.791730369690856e-05,6.397111417188476e-18,0.12693130031686514,3.0,0.0,1.5,-2.0447003946832502e-16,-0.0008180508531015192,3.3505389051745576e-13,0.004083463271355091,6.507996095334313e-16,1.3686860403345293,-1.9386661868806873e-14,-0.06101997374747887,4.226171495553805e-11,0.0,0.0,0.0,14.961922477216197,-5.648644811674797e-15,34.37845129273981,14.987971749607064,-4.417172671492888e-12,34.36710258858741,4.707837077313673e-14,0.003347833573266055,-2.0929449944851313e-12,18.744022719492744,18.74402271949054,0.005579722622110092,0.4113059485650821,0.41130594856482877,18.744022719492744,18.74402271949054,0.005579722622110092,0.4113059485650821,0.41130594856482877,1.1782883369266121e-13,1.1782883369266121e-13
1762691370.0544775,3.791730369690856e-05,6.397111417188476e-18,0.12693130031686514,3.0,0.0,1.5,-2.0447003946832502e-16,-0.0008180508531015192,3.3505389051745576e-13,0.004083463271355091,6.507996095334313e-16,1.3686860403345293,-1.9386661868806873e-14,-0.06101997374747887,4.226171495553805e-11,0.0,0.0,0.0,14.958975780767963,-6.539981652420872e-15,34.38048309507038,14.987095755830165,-5.025630289397241e-12,34.36823438970353,5.257922006567722e-14,0.0034600240683042446,-2.2805653042474234e-12,18.744280624063247,18.74428062406085,0.005766706780507075,0.4112744541692168,0.4112744541689407,18.744280624063247,18.74428062406085,0.005766706780507075,0.4112744541692168,0.4112744541689407,1.3405769979099212e-13,1.3405769979099212e-13
1762691370.0560093,3.791730369690856e-05,6.397111417188476e-18,0.12693130031686514,3.0,0.0,1.5,-2.0447003946832502e-16,-0.0008180508531015192,3.3505389051745576e-13,0.004083463271355091,6.507996095334313e-16,1.3686860403345293,-1.9386661868806873e-14,-0.06101997374747887,4.226171495553805e-11,0.0,0.0,0.0,14.958975780767963,-6.539981652420872e-15,34.38048309507038,14.987095755830165,-5.025630289397241e-12,34.36823438970353,5.257922006567722e-14,0.0034600240683042446,-2.2805653042474234e-12,18.744280624063247,18.74428062406085,0.005766706780507075,0.4112744541692168,0.4112744541689407,18.744280624063247,18.74428062406085,0.005766706780507075,0.4112744541692168,0.4112744541689407,1.3405769979099212e-13,1.3405769979099212e-13
1762691370.0578227,4.229903432131757e-05,7.138107496345097e-18,0.12829954253203463,3.0,0.0,1.5,-2.474175206062158e-16,-0.0008798623002762803,3.7904506760827307e-13,0.004387581150810323,7.553732637336606e-16,1.367798078217328,-2.232638286179759e-14,-0.06259169355200989,4.57205719223088e-11,0.0,0.0,0.0,14.958975780767963,-6.539981652420872e-15,34.38048309507038,14.987095755830165,-5.025630289397241e-12,34.36823438970353,5.257922006567722e-14,0.0034600240683042446,-2.2805653042474234e-12,18.744280624063247,18.74428062406085,0.005766706780507075,0.4112744541692168,0.4112744541689407,18.744280624063247,18.74428062406085,0.005766706780507075,0.4112744541692168,0.4112744541689407,1.3405769979099212e-13,1.3405769979099212e-13
1762691370.0593507,4.229903432131757e-05,7.138107496345097e-18,0.12829954253203463,3.0,0.0,1.5,-2.474175206062158e-16,-0.0008798623002762803,3.7904506760827307e-13,0.004387581150810323,7.553732637336606e-16,1.367798078217328,-2.232638286179759e-14,-0.06259169355200989,4.57205719223088e-11,0.0,0.0,0.0,14.955912693320288,-7.589423174819104e-15,34.38252150516655,14.986158784760967,-5.6850579402857206e-12,34.369349054373885,5.83912115596103e-14,0.0035695157709759577,-2.4754951409715996e-12,18.744520567076794,18.744520567074183,0.005949192951626596,0.4112416044816139,0.4112416044813144,18.744520567076794,18.744520567074183,0.005949192951626596,0.4112416044816139,0.4112416044813144,1.5164586151836426e-13,1.5164586151836426e-13
1762691370.0607488,4.229903432131757e-05,7.138107496345097e-18,0.12829954253203463,3.0,0.0,1.5,-2.474175206062158e-16,-0.0008798623002762803,3.7904506760827307e-13,0.004387581150810323,7.553732637336606e-16,1.367798078217328,-2.232638286179759e-14,-0.06259169355200989,4.57205719223088e-11,0.0,0.0,0.0,14.955912693320288,-7.589423174819104e-15,34.38252150516655,14.986158784760967,-5.6850579402857206e-12,34.369349054373885,5.83912115596103e-14,0.0035695157709759577,-2.4754951409715996e-12,18.744520567076794,18.744520567074183,0.005949192951626596,0.4112416044816139,0.4112416044813144,18.744520567076794,18.744520567074183,0.005949192951626596,0.4112416044816139,0.4112416044813144,1.5164586151836426e-13,1.5164586151836426e-13
1762691370.0622594,4.6994333334265285e-05,7.999192475449617e-18,0.12966689667658296,3.0,0.0,1.5,-2.96909577137004e-16,-0.0009432112295186612,4.265498537854412e-13,0.00470329661265974,8.776921171376435e-16,1.3669098709358962,-2.558427600603025e-14,-0.06409524492042755,4.9288915322019066e-11,0.0,0.0,0.0,14.955912693320288,-7.589423174819104e-15,34.38252150516655,14.986158784760967,-5.6850579402857206e-12,34.369349054373885,5.83912115596103e-14,0.0035695157709759577,-2.4754951409715996e-12,18.744520567076794,18.744520567074183,0.005949192951626596,0.4112416044816139,0.4112416044813144,18.744520567076794,18.744520567074183,0.005949192951626596,0.4112416044816139,0.4112416044813144,1.5164586151836426e-13,1.5164586151836426e-13
1762691370.0635808,4.6994333334265285e-05,7.999192475449617e-18,0.12966689667658296,3.0,0.0,1.5,-2.96909577137004e-16,-0.0009432112295186612,4.265498537854412e-13,0.00470329661265974,8.776921171376435e-16,1.3669098709358962,-2.558427600603025e-14,-0.06409524492042755,4.9288915322019066e-11,0.0,0.0,0.0,14.952732062206731,-8.81691713375385e-15,34.38456680725812,14.985157315603361,-6.397107507121667e-12,34.370447929486765,6.45107889062961e-14,0.003676367790853591,-2.677654982329235e-12,18.74474241953122,18.744742419528393,0.006127279651422652,0.4112073000641626,0.41120730006383877,18.74474241953122,18.744742419528393,0.006127279651422652,0.4112073000641626,0.41120730006383877,1.7063738097720235e-13,1.7063738097720235e-13
1762691370.0650578,4.6994333334265285e-05,7.999192475449617e-18,0.12966689667658296,3.0,0.0,1.5,-2.96909577137004e-16,-0.0009432112295186612,4.265498537854412e-13,0.00470329661265974,8.776921171376435e-16,1.3669098709358962,-2.558427600603025e-14,-0.06409524492042755,4.9288915322019066e-11,0.0,0.0,0.0,14.952732062206731,-8.81691713375385e-15,34.38456680725812,14.985157315603361,-6.397107507121667e-12,34.370447929486765,6.45107889062961e-14,0.003676367790853591,-2.677654982329235e-12,18.74474241953122,18.744742419528393,0.006127279651422652,0.4112073000641626,0.41120730006383877,18.74474241953122,18.744742419528393,0.006127279651422652,0.4112073000641626,0.41120730006383877,1.7063738097720235e-13,1.7063738097720235e-13
1762691370.0666637,5.2014690941315136e-05,8.9998853409538e-18,0.1310333624916032,3.0,0.0,1.5,-3.5360924746708e-16,-0.0010080303891845913,4.776764197790425e-13,0.0050307143521882034,1.0198967563289924e-15,1.3660213898932478,-2.913417789965904e-14,-0.06553245406929267,5.2964111573567346e-11,0.0,0.0,0.0,14.952732062206731,-8.81691713375385e-15,34.38456680725812,14.985157315603361,-6.397107507121667e-12,34.370447929486765,6.45107889062961e-14,0.003676367790853591,-2.677654982329235e-12,18.74474241953122,18.744742419528393,0.006127279651422652,0.4112073000641626,0.41120730006383877,18.74474241953122,18.744742419528393,0.006127279651422652,0.4112073000641626,0.41120730006383877,1.7063738097720235e-13,1.7063738097720235e-13
1762691370.068205,5.2014690941315136e-05,8.9998853409538e-18,0.1310333624916032,3.0,0.0,1.5,-3.5360924746708e-16,-0.0010080303891845913,4.776764197790425e-13,0.0050307143521882034,1.0198967563289924e-15,1.3660213898932478,-2.913417789965904e-14,-0.06553245406929267,5.2964111573567346e-11,0.0,0.0,0.0,14.949432783023408,-1.0243966989994788e-14,34.3866192886095,14.98408793912983,-7.163389588196415e-12,34.371532338060376,7.09304995876694e-14,0.003780637812699838,-2.886967269416305e-12,18.744946065238075,18.744946065235027,0.006301063021166397,0.41117144443138604,0.41117144443103687,18.744946065238075,18.744946065235027,0.006301063021166397,0.41117144443138604,0.41117144443103687,1.910752253771827e-13,1.910752253771827e-13
1762691370.0695503,5.2014690941315136e-05,8.9998853409538e-18,0.1310333624916032,3.0,0.0,1.5,-3.5360924746708e-16,-0.0010080303891845913,4.776764197790425e-13,0.0050307143521882034,1.0198967563289924e-15,1.3660213898932478,-2.913417789965904e-14,-0.06553245406929267,5.2964111573567346e-11,0.0,0.0,0.0,14.949432783023408,-1.0243966989994788e-14,34.3866192886095,14.98408793912983,-7.163389588196415e-12,34.371532338060376,7.09304995876694e-14,0.003780637812699838,-2.886967269416305e-12,18.744946065238075,18.744946065235027,0.006301063021166397,0.41117144443138604,0.41117144443103687,18.744946065238075,18.744946065235027,0.006301063021166397,0.41117144443138604,0.41117144443103687,1.910752253771827e-13,1.910752253771827e-13
1762691370.0710037,5.737170394711958e-05,1.0162100943358236e-17,0.13239893968943572,3.0,0.0,1.5,-4.1815017762925655e-16,-0.0010742543308445718,5.325303314346979e-13,0.005369934306042082,1.1842870595047021e-15,1.3651326062255627,-3.3017146106152756e-14,-0.06690510139355973,5.674358304265834e-11,0.0,0.0,0.0,14.949432783023408,-1.0243966989994788e-14,34.3866192886095,14.98408793912983,-7.163389588196415e-12,34.371532338060376,7.09304995876694e-14,0.003780637812699838,-2.886967269416305e-12,18.744946065238075,18.744946065235027,0.006301063021166397,0.41117144443138604,0.41117144443103687,18.744946065238075,18.744946065235027,0.006301063021166397,0.41117144443138604,0.41117144443103687,1.910752253771827e-13,1.910752253771827e-13
1762691370.0723855,5.737170394711958e-05,1.0162100943358236e-17,0.13239893968943572,3.0,0.0,1.5,-4.1815017762925655e-16,-0.0010742543308445718,5.325303314346979e-13,0.005369934306042082,1.1842870595047021e-15,1.3651326062255627,-3.3017146106152756e-14,-0.06690510139355973,5.674358304265834e-11,0.0,0.0,0.0,14.946013798419843,-1.1893681099764117e-14,34.38867923929719,14.982947354903049,-7.985472273092275e-12,34.3726035796829,7.764561764565674e-14,0.0038823821317908185,-3.103355768111078e-12,18.745131400459762,18.745131400456486,0.006470636886318031,0.4111339439773564,0.4111339439769811,18.745131400459762,18.745131400456486,0.006470636886318031,0.4111339439773564,0.4111339439769811,2.130012348939072e-13,2.130012348939072e-13
1762691370.0739458,5.737170394711958e-05,1.0162100943358236e-17,0.13239893968943572,3.0,0.0,1.5,-4.1815017762925655e-16,-0.0010742543308445718,5.325303314346979e-13,0.005369934306042082,1.1842870595047021e-15,1.3651326062255627,-3.3017146106152756e-14,-0.06690510139355973,5.674358304265834e-11,0.0,0.0,0.0,14.946013798419843,-1.1893681099764117e-14,34.38867923929719,14.982947354903049,-7.985472273092275e-12,34.3726035796829,7.764561764565674e-14,0.0038823821317908185,-3.103355768111078e-12,18.745131400459762,18.745131400456486,0.006470636886318031,0.4111339439773564,0.4111339439769811,18.745131400459762,18.745131400456486,0.006470636886318031,0.4111339439773564,0.4111339439769811,2.130012348939072e-13,2.130012348939072e-13
1762691370.0755622,6.307707094949834e-05,1.1510034447447153e-17,0.1337636279534113,3.0,0.0,1.5,-4.912516435503323e-16,-0.001141819364035026,5.91214605750148e-13,0.005721051772629476,1.3733261211307868e-15,1.3642434908242684,-3.720587464792172e-14,-0.06821492260795166,6.062481004064718e-11,0.0,0.0,0.0,14.946013798419843,-1.1893681099764117e-14,34.38867923929719,14.982947354903049,-7.985472273092275e-12,34.3726035796829,7.764561764565674e-14,0.0038823821317908185,-3.103355768111078e-12,18.745131400459762,18.745131400456486,0.006470636886318031,0.4111339439773564,0.4111339439769811,18.745131400459762,18.745131400456486,0.006470636886318031,0.4111339439773564,0.4111339439769811,2.130012348939072e-13,2.130012348939072e-13
1762691370.077032,6.307707094949834e-05,1.1510034447447153e-17,0.1337636279534113,3.0,0.0,1.5,-4.912516435503323e-16,-0.001141819364035026,5.91214605750148e-13,0.005721051772629476,1.3733261211307868e-15,1.3642434908242684,-3.720587464792172e-14,-0.06821492260795166,6.062481004064718e-11,0.0,0.0,0.0,14.942474096918957,-1.3790811383543184e-14,34.390746951990266,14.981732368564593,-8.864885861934951e-12,34.37366293093632,8.464748894038771e-14,0.0039816556883610485,-3.3267460484933142e-12,18.7452983335541,18.74529833355058,0.006636092813935081,0.4110947079044568,0.4110947079040546,18.7452983335541,18.74529833355058,0.006636092813935081,0.4110947079044568,0.4110947079040546,2.364562490335945e-13,2.364562490335945e-13
1762691370.0783696,6.307707094949834e-05,1.1510034447447153e-17,0.1337636279534113,3.0,0.0,1.5,-4.912516435503323e-16,-0.001141819364035026,5.91214605750148e-13,0.005721051772629476,1.3733261211307868e-15,1.3642434908242684,-3.720587464792172e-14,-0.06821492260795166,6.062481004064718e-11,0.0,0.0,0.0,14.942474096918957,-1.3790811383543184e-14,34.390746951990266,14.981732368564593,-8.864885861934951e-12,34.37366293093632,8.464748894038771e-14,0.0039816556883610485,-3.3267460484933142e-12,18.7452983335541,18.74529833355058,0.006636092813935081,0.4110947079044568,0.4110947079040546,18.7452983335541,18.74529833355058,0.006636092813935081,0.4110947079044568,0.4110947079040546,2.364562490335945e-13,2.364562490335945e-13
1762691370.0797706,6.914258765514099e-05,1.3070479247146298e-17,0.1351274269376165,3.0,0.0,1.5,-5.736532758830828e-16,-0.0012106635121367716,6.538297675420156e-13,0.006084157529613528,1.5896446227779227e-15,1.3633540143577918,-4.1810874924163375e-14,-0.06946360985993642,6.460532738888195e-11,0.0,0.0,0.0,14.942474096918957,-1.3790811383543184e-14,34.390746951990266,14.981732368564593,-8.864885861934951e-12,34.37366293093632,8.464748894038771e-14,0.0039816556883610485,-3.3267460484933142e-12,18.7452983335541,18.74529833355058,0.006636092813935081,0.4110947079044568,0.4110947079040546,18.7452983335541,18.74529833355058,0.006636092813935081,0.4110947079044568,0.4110947079040546,2.364562490335945e-13,2.364562490335945e-13
1762691370.081279,6.914258765514099e-05,1.3070479247146298e-17,0.1351274269376165,3.0,0.0,1.5,-5.736532758830828e-16,-0.0012106635121367716,6.538297675420156e-13,0.006084157529613528,1.5896446227779227e-15,1.3633540143577918,-4.1810874924163375e-14,-0.06946360985993642,6.460532738888195e-11,0.0,0.0,0.0,14.938812711765587,-1.5961798624015425e-14,34.39282272173401,14.980439889189217,-9.80312140725457e-12,34.37471164580469,9.193386349900801e-14,0.004078512101192139,-3.5570647864274567e-12,18.745446784626036,18.745446784622274,0.0067975201686535655,0.4110536481539424,0.4110536481535124,18.745446784626036,18.745446784622274,0.0067975201686535655,0.4110536481539424,0.4110536481535124,2.6148006819702805e-13,2.6148006819702805e-13
1762691370.0828633,6.914258765514099e-05,1.3070479247146298e-17,0.1351274269376165,3.0,0.0,1.5,-5.736532758830828e-16,-0.0012106635121367716,6.538297675420156e-13,0.006084157529613528,1.5896446227779227e-15,1.3633540143577918,-4.1810874924163375e-14,-0.06946360985993642,6.460532738888195e-11,0.0,0.0,0.0,14.938812711765587,-1.5961798624015425e-14,34.39282272173401,14.980439889189217,-9.80312140725457e-12,34.37471164580469,9.193386349900801e-14,0.004078512101192139,-3.5570647864274567e-12,18.745446784626036,18.745446784622274,0.0067975201686535655,0.4110536481539424,0.4110536481535124,18.745446784626036,18.745446784622274,0.0067975201686535655,0.4110536481539424,0.4110536481535124,2.6148006819702805e-13,2.6148006819702805e-13
1762691370.084421,7.558014231399732e-05,1.4873007028647554e-17,0.13649033626668072,3.0,0.0,1.5,-6.661093190896426e-16,-0.0012807264693525649,7.204739035171847e-13,0.006459337948572591,1.83604529830236e-15,1.3624641472929608,-4.6810607482261875e-14,-0.07065281281501319,6.86827228410122e-11,0.0,0.0,0.0,14.938812711765587,-1.5961798624015425e-14,34.39282272173401,14.980439889189217,-9.80312140725457e-12,34.37471164580469,9.193386349900801e-14,0.004078512101192139,-3.5570647864274567e-12,18.745446784626036,18.745446784622274,0.0067975201686535655,0.4110536481539424,0.4110536481535124,18.745446784626036,18.745446784622274,0.0067975201686535655,0.4110536481539424,0.4110536481535124,2.6148006819702805e-13,2.6148006819702805e-13
1762691370.0858872,7.558014231399732e-05,1.4873007028647554e-17,0.13649033626668072,3.0,0.0,1.5,-6.661093190896426e-16,-0.0012807264693525649,7.204739035171847e-13,0.006459337948572591,1.83604529830236e-15,1.3624641472929608,-4.6810607482261875e-14,-0.07065281281501319,6.86827228410122e-11,0.0,0.0,0.0,14.935028719802705,-1.8434818018167186e-14,34.39490684573699,14.979066926702995,-1.0801631266978225e-11,34.37575095606799,9.94954536706983e-14,0.004173003700366559,-3.794240440769202e-12,18.7455766851867,18.74557668518268,0.006955006167277599,0.4110106793382508,0.41101067933779223,18.7455766851867,18.74557668518268,0.006955006167277599,0.4110106793382508,0.41101067933779223,2.881114688649496e-13,2.881114688649496e-13
1762691370.0872633,7.558014231399732e-05,1.4873007028647554e-17,0.13649033626668072,3.0,0.0,1.5,-6.661093190896426e-16,-0.0012807264693525649,7.204739035171847e-13,0.006459337948572591,1.83604529830236e-15,1.3624641472929608,-4.6810607482261875e-14,-0.07065281281501319,6.86827228410122e-11,0.0,0.0,0.0,14.935028719802705,-1.8434818018167186e-14,34.39490684573699,14.979066926702995,-1.0801631266978225e-11,34.37575095606799,9.94954536706983e-14,0.004173003700366559,-3.794240440769202e-12,18.7455766851867,18.74557668518268,0.006955006167277599,0.4110106793382508,0.41101067933779223,18.7455766851867,18.74557668518268,0.006955006167277599,0.4110106793382508,0.41101067933779223,2.881114688649496e-13,2.881114688649496e-13
1762691370.088645,8.240171126949309e-05,1.694997185437097e-17,0.13785235553558456,3.0,0.0,1.5,-7.694584109252135e-16,-0.001351949558756379,7.912427148231153e-13,0.006846675106898872,2.115506291170664e-15,1.3615738599160447,-5.217928290515443e-14,-0.07178413971499736,7.285463642656186e-11,0.0,0.0,0.0,14.935028719802705,-1.8434818018167186e-14,34.39490684573699,14.979066926702995,-1.0801631266978225e-11,34.37575095606799,9.94954536706983e-14,0.004173003700366559,-3.794240440769202e-12,18.7455766851867,18.74557668518268,0.006955006167277599,0.4110106793382508,0.41101067933779223,18.7455766851867,18.74557668518268,0.006955006167277599,0.4110106793382508,0.41101067933779223,2.881114688649496e-13,2.881114688649496e-13
1762691370.0901597,8.240171126949309e-05,1.694997185437097e-17,0.13785235553558456,3.0,0.0,1.5,-7.694584109252135e-16,-0.001351949558756379,7.912427148231153e-13,0.006846675106898872,2.115506291170664e-15,1.3615738599160447,-5.217928290515443e-14,-0.07178413971499736,7.285463642656186e-11,0.0,0.0,0.0,14.931121240374663,-2.123981277097877e-14,34.39699962316163,14.977610589363817,-1.1861832222463706e-11,34.37678207168213,1.073224111991876e-13,0.004265181559207276,-4.03820291209917e-12,18.7456879778194,18.74568797781512,0.007108635932012127,0.410965718675018,0.4109657186745301,18.7456879778194,18.74568797781512,0.007108635932012127,0.410965718675018,0.4109657186745301,3.163882871757074e-13,3.163882871757074e-13
1762691370.0916786,8.240171126949309e-05,1.694997185437097e-17,0.13785235553558456,3.0,0.0,1.5,-7.694584109252135e-16,-0.001351949558756379,7.912427148231153e-13,0.006846675106898872,2.115506291170664e-15,1.3615738599160447,-5.217928290515443e-14,-0.07178413971499736,7.285463642656186e-11,0.0,0.0,0.0,14.931121240374663,-2.123981277097877e-14,34.39699962316163,14.977610589363817,-1.1861832222463706e-11,34.37678207168213,1.073224111991876e-13,0.004265181559207276,-4.03820291209917e-12,18.7456879778194,18.74568797781512,0.007108635932012127,0.410965718675018,0.4109657186745301,18.7456879778194,18.74568797781512,0.007108635932012127,0.410965718675018,0.4109657186745301,3.163882871757074e-13,3.163882871757074e-13
1762691370.0932713,8.961935462178141e-05,1.9336968657955997e-17,0.13921348430948907,3.0,0.0,1.5,-8.845041400859424e-16,-0.0014242756913877535,8.662295695036488e-13,0.007246246897005315,2.431185463438989e-15,1.3606831223534173,-5.800782892030524e-14,-0.07285915840997773,7.711876309556701e-11,0.0,0.0,0.0,14.931121240374663,-2.123981277097877e-14,34.39699962316163,14.977610589363817,-1.1861832222463706e-11,34.37678207168213,1.073224111991876e-13,0.004265181559207276,-4.03820291209917e-12,18.7456879778194,18.74568797781512,0.007108635932012127,0.410965718675018,0.4109657186745301,18.7456879778194,18.74568797781512,0.007108635932012127,0.410965718675018,0.4109657186745301,3.163882871757074e-13,3.163882871757074e-13
1762691370.0946536,8.961935462178141e-05,1.9336968657955997e-17,0.13921348430948907,3.0,0.0,1.5,-8.845041400859424e-16,-0.0014242756913877535,8.662295695036488e-13,0.007246246897005315,2.431185463438989e-15,1.3606831223534173,-5.800782892030524e-14,-0.07285915840997773,7.711876309556701e-11,0.0,0.0,0.0,14.927089434256835,-2.4408539477679665e-14,34.399101354918386,14.976068081302738,-1.2985102105950739e-11,34.37780618114593,1.154103695015329e-13,0.004355095525423582,-4.288883348872062e-12,18.74578061585278,18.74578061584823,0.007258492542372637,0.4109186859227541,0.41091868592223596,18.74578061585278,18.74578061584823,0.007258492542372637,0.4109186859227541,0.41091868592223596,3.4634732935504373e-13,3.4634732935504373e-13
1762691370.096024,8.961935462178141e-05,1.9336968657955997e-17,0.13921348430948907,3.0,0.0,1.5,-8.845041400859424e-16,-0.0014242756913877535,8.662295695036488e-13,0.007246246897005315,2.431185463438989e-15,1.3606831223534173,-5.800782892030524e-14,-0.07285915840997773,7.711876309556701e-11,0.0,0.0,0.0,14.927089434256835,-2.4408539477679665e-14,34.399101354918386,14.976068081302738,-1.2985102105950739e-11,34.37780618114593,1.154103695015329e-13,0.004355095525423582,-4.288883348872062e-12,18.74578061585278,18.74578061584823,0.007258492542372637,0.4109186859227541,0.41091868592223596,18.74578061585278,18.74578061584823,0.007258492542372637,0.4109186859227541,0.41091868592223596,3.4634732935504373e-13,3.4634732935504373e-13
1762691370.0974905,9.724521200130953e-05,2.2072682531052066e-17,0.14057372212358585,3.0,0.0,1.5,-1.0121528254477967e-15,-0.0014976493263652074,9.45525553711584e-13,0.007658127132908308,2.786423091113173e-15,1.3597919045918248,-6.433857040613225e-14,-0.07387939736460027,8.147284345406102e-11,0.0,0.0,0.0,14.927089434256835,-2.4408539477679665e-14,34.399101354918386,14.976068081302738,-1.2985102105950739e-11,34.37780618114593,1.154103695015329e-13,0.004355095525423582,-4.288883348872062e-12,18.74578061585278,18.74578061584823,0.007258492542372637,0.4109186859227541,0.41091868592223596,18.74578061585278,18.74578061584823,0.007258492542372637,0.4109186859227541,0.41091868592223596,3.4634732935504373e-13,3.4634732935504373e-13
1762691370.099128,9.724521200130953e-05,2.2072682531052066e-17,0.14057372212358585,3.0,0.0,1.5,-1.0121528254477967e-15,-0.0014976493263652074,9.45525553711584e-13,0.007658127132908308,2.786423091113173e-15,1.3597919045918248,-6.433857040613225e-14,-0.07387939736460027,8.147284345406102e-11,0.0,0.0,0.0,14.922932502610914,-2.797459432378637e-14,34.40121234346384,14.974436700124649,-1.4172785236160082e-11,34.37882445185597,1.2375227987377915e-13,0.004442794251482832,-4.5462141737079466e-12,18.745854563040865,18.745854563036037,0.00740465708580472,0.4108695033181342,0.41086950331758504,18.745854563040865,18.745854563036037,0.00740465708580472,0.4108695033181342,0.41086950331758504,3.780245170605566e-13,3.780245170605566e-13
1762691370.1005704,9.724521200130953e-05,2.2072682531052066e-17,0.14057372212358585,3.0,0.0,1.5,-1.0121528254477967e-15,-0.0014976493263652074,9.45525553711584e-13,0.007658127132908308,2.786423091113173e-15,1.3597919045918248,-6.433857040613225e-14,-0.07387939736460027,8.147284345406102e-11,0.0,0.0,0.0,14.922932502610914,-2.797459432378637e-14,34.40121234346384,14.974436700124649,-1.4172785236160082e-11,34.37882445185597,1.2375227987377915e-13,0.004442794251482832,-4.5462141737079466e-12,18.745854563040865,18.745854563036037,0.00740465708580472,0.4108695033181342,0.41086950331758504,18.745854563040865,18.745854563036037,0.00740465708580472,0.4108695033181342,0.41086950331758504,3.780245170605566e-13,3.780245170605566e-13
1762691370.1021352,0.00010529149845005017,2.5199269974762426e-17,0.141933068482967,3.0,0.0,1.5,-1.1533293092777894e-15,-0.0015720164319933743,1.0292195203982521e-12,0.008082385654252129,3.1847460492126867e-15,1.358900176498256,-7.104715325790628e-14,-0.07484634663931898,8.591466741056995e-11,0.0,0.0,0.0,14.922932502610914,-2.797459432378637e-14,34.40121234346384,14.974436700124649,-1.4172785236160082e-11,34.37882445185597,1.2375227987377915e-13,0.004442794251482832,-4.5462141737079466e-12,18.745854563040865,18.745854563036037,0.00740465708580472,0.4108695033181342,0.41086950331758504,18.745854563040865,18.745854563036037,0.00740465708580472,0.4108695033181342,0.41086950331758504,3.780245170605566e-13,3.780245170605566e-13
1762691370.1035283,0.00010529149845005017,2.5199269974762426e-17,0.141933068482967,3.0,0.0,1.5,-1.1533293092777894e-15,-0.0015720164319933743,1.0292195203982521e-12,0.008082385654252129,3.1847460492126867e-15,1.358900176498256,-7.104715325790628e-14,-0.07484634663931898,8.591466741056995e-11,0.0,0.0,0.0,14.918649685965228,-3.1973456842005516e-14,34.4033328926026,14.972713834566823,-1.5426190206469412e-11,34.379838030449676,1.3233251419658085e-13,0.004528325224227421,-4.810129654739803e-12,18.745909793249997,18.745909793244888,0.007547208707045702,0.41081809551486276,0.4108180955142817,18.745909793249997,18.745909793244888,0.007547208707045702,0.41081809551486276,0.4108180955142817,4.1145482872285437e-13,4.1145482872285437e-13
