timestamp,pos_x,pos_y,pos_z,target_x,target_y,target_z,roll,pitch,yaw,vel_x,vel_y,vel_z,angular_vel_x,angular_vel_y,angular_vel_z,accel_x,accel_y,accel_z,f_world_x,f_world_y,f_world_z,f_body_x,f_body_y,f_body_z,tau_x,tau_y,tau_z,u1,u2,u3,u4,u5,T12,T34,T5,alpha1,alpha2theta1,theta2
1762666247.556218,0.0,0.0,1.075,0.0,0.0,1.5,0.0,0.0,0.0,0.0,0.0,0.0,0.0,0.0,0.0,0.0,0.0,0.0,0.0,0.0,0.0,0.0,0.0,0.0,0.0,0.0,0.0,0.0,0.0,0.0,0.0,0.0,0.0,0.0,0.0,0.0,0.0,0.0,0.0
1762666247.5580316,0.0,0.0,1.075,0.0,0.0,1.5,0.0,0.0,0.0,0.0,0.0,0.0,0.0,0.0,0.0,0.0,0.0,0.0,0.0,0.0,43.327000000000005,0.0,0.0,43.327000000000005,0.0,0.0,0.0,21.663500000000003,21.663500000000003,0.0,0.0,0.0,21.663500000000003,21.663500000000003,0.0,0.0,0.0,-0.0,-0.0
1762666247.5596244,0.0,0.0,1.075,0.0,0.0,1.5,0.0,0.0,0.0,0.0,0.0,0.0,0.0,0.0,0.0,0.0,0.0,0.0,0.0,0.0,43.327000000000005,0.0,0.0,43.327000000000005,0.0,0.0,0.0,21.663500000000003,21.663500000000003,0.0,0.0,0.0,21.663500000000003,21.663500000000003,0.0,0.0,0.0,-0.0,-0.0
1762666247.5611513,0.0,0.0,1.075,0.0,0.0,1.5,0.0,0.0,0.0,0.0,0.0,0.0,0.0,0.0,0.0,0.0,0.0,0.0,0.0,0.0,43.327000000000005,0.0,0.0,43.327000000000005,0.0,0.0,0.0,21.663500000000003,21.663500000000003,0.0,0.0,0.0,21.663500000000003,21.663500000000003,0.0,0.0,0.0,-0.0,-0.0
1762666247.5625865,0.0,0.0,1.075,0.0,0.0,1.5,0.0,0.0,0.0,0.0,0.0,0.0,0.0,0.0,0.0,0.0,0.0,0.0,0.0,0.0,43.327000000000005,0.0,0.0,43.327000000000005,0.0,0.0,0.0,21.663500000000003,21.663500000000003,0.0,0.0,0.0,21.663500000000003,21.663500000000003,0.0,0.0,0.0,-0.0,-0.0
1762666247.5640476,0.0,0.0,1.075,0.0,0.0,1.5,0.0,0.0,0.0,0.0,0.0,0.0,0.0,0.0,0.0,0.0,0.0,0.0,0.0,0.0,43.327000000000005,0.0,0.0,43.327000000000005,0.0,0.0,0.0,21.663500000000003,21.663500000000003,0.0,0.0,0.0,21.663500000000003,21.663500000000003,0.0,0.0,0.0,-0.0,-0.0
1762666247.5655653,0.0,0.0,1.075,0.0,0.0,1.5,0.0,0.0,0.0,0.0,0.0,0.0,0.0,0.0,0.0,0.0,0.0,0.0,0.0,0.0,43.327000000000005,0.0,0.0,43.327000000000005,0.0,0.0,0.0,21.663500000000003,21.663500000000003,0.0,0.0,0.0,21.663500000000003,21.663500000000003,0.0,0.0,0.0,-0.0,-0.0
1762666247.5671077,0.0,0.0,1.075,0.0,0.0,1.5,0.0,0.0,0.0,0.0,0.0,0.0,0.0,0.0,0.0,0.0,0.0,0.0,0.0,0.0,43.327000000000005,0.0,0.0,43.327000000000005,0.0,0.0,0.0,21.663500000000003,21.663500000000003,0.0,0.0,0.0,21.663500000000003,21.663500000000003,0.0,0.0,0.0,-0.0,-0.0
1762666247.568703,0.0,0.0,1.075,0.0,0.0,1.5,0.0,0.0,0.0,0.0,0.0,0.0,0.0,0.0,0.0,0.0,0.0,0.0,0.0,0.0,43.327000000000005,0.0,0.0,43.327000000000005,0.0,0.0,0.0,21.663500000000003,21.663500000000003,0.0,0.0,0.0,21.663500000000003,21.663500000000003,0.0,0.0,0.0,-0.0,-0.0
1762666247.570181,0.0,0.0,1.075,0.0,0.0,1.5,0.0,0.0,0.0,0.0,0.0,0.0,0.0,0.0,0.0,0.0,0.0,0.0,0.0,0.0,43.327000000000005,0.0,0.0,43.327000000000005,0.0,0.0,0.0,21.663500000000003,21.663500000000003,0.0,0.0,0.0,21.663500000000003,21.663500000000003,0.0,0.0,0.0,-0.0,-0.0
1762666247.5715675,0.0,0.0,1.075,0.0,0.0,1.5,0.0,0.0,0.0,0.0,0.0,0.0,0.0,0.0,0.0,0.0,0.0,0.0,0.0,0.0,43.327000000000005,0.0,0.0,43.327000000000005,0.0,0.0,0.0,21.663500000000003,21.663500000000003,0.0,0.0,0.0,21.663500000000003,21.663500000000003,0.0,0.0,0.0,-0.0,-0.0
1762666247.5728297,0.0,0.0,1.075,0.0,0.0,1.5,0.0,0.0,0.0,0.0,0.0,0.0,0.0,0.0,0.0,0.0,0.0,0.0,0.0,0.0,43.327000000000005,0.0,0.0,43.327000000000005,0.0,0.0,0.0,21.663500000000003,21.663500000000003,0.0,0.0,0.0,21.663500000000003,21.663500000000003,0.0,0.0,0.0,-0.0,-0.0
1762666247.5741804,0.0,0.0,1.075,0.0,0.0,1.5,0.0,0.0,0.0,0.0,0.0,0.0,0.0,0.0,0.0,0.0,0.0,0.0,0.0,0.0,43.327000000000005,0.0,0.0,43.327000000000005,0.0,0.0,0.0,21.663500000000003,21.663500000000003,0.0,0.0,0.0,21.663500000000003,21.663500000000003,0.0,0.0,0.0,-0.0,-0.0
1762666247.5755508,0.0,0.0,1.075,0.0,0.0,1.5,0.0,0.0,0.0,0.0,0.0,0.0,0.0,0.0,0.0,0.0,0.0,0.0,0.0,0.0,43.327000000000005,0.0,0.0,43.327000000000005,0.0,0.0,0.0,21.663500000000003,21.663500000000003,0.0,0.0,0.0,21.663500000000003,21.663500000000003,0.0,0.0,0.0,-0.0,-0.0
1762666247.57691,0.0,0.0,1.075,0.0,0.0,1.5,0.0,0.0,0.0,0.0,0.0,0.0,0.0,0.0,0.0,0.0,0.0,0.0,0.0,0.0,43.327000000000005,0.0,0.0,43.327000000000005,0.0,0.0,0.0,21.663500000000003,21.663500000000003,0.0,0.0,0.0,21.663500000000003,21.663500000000003,0.0,0.0,0.0,-0.0,-0.0
1762666247.5782497,0.0,0.0,1.075,0.0,0.0,1.5,0.0,0.0,0.0,0.0,0.0,0.0,0.0,0.0,0.0,0.0,0.0,0.0,0.0,0.0,43.327000000000005,0.0,0.0,43.327000000000005,0.0,0.0,0.0,21.663500000000003,21.663500000000003,0.0,0.0,0.0,21.663500000000003,21.663500000000003,0.0,0.0,0.0,-0.0,-0.0
1762666247.5795412,0.0,0.0,1.075,0.0,0.0,1.5,0.0,0.0,0.0,0.0,0.0,0.0,0.0,0.0,0.0,0.0,0.0,0.0,0.0,0.0,43.327000000000005,0.0,0.0,43.327000000000005,0.0,0.0,0.0,21.663500000000003,21.663500000000003,0.0,0.0,0.0,21.663500000000003,21.663500000000003,0.0,0.0,0.0,-0.0,-0.0
1762666247.580797,0.0,0.0,1.075,0.0,0.0,1.5,0.0,0.0,0.0,0.0,0.0,0.0,0.0,0.0,0.0,0.0,0.0,0.0,0.0,0.0,43.327000000000005,0.0,0.0,43.327000000000005,0.0,0.0,0.0,21.663500000000003,21.663500000000003,0.0,0.0,0.0,21.663500000000003,21.663500000000003,0.0,0.0,0.0,-0.0,-0.0
1762666247.5821047,0.0,0.0,1.075,0.0,0.0,1.5,0.0,0.0,0.0,0.0,0.0,0.0,0.0,0.0,0.0,0.0,0.0,0.0,0.0,0.0,43.327000000000005,0.0,0.0,43.327000000000005,0.0,0.0,0.0,21.663500000000003,21.663500000000003,0.0,0.0,0.0,21.663500000000003,21.663500000000003,0.0,0.0,0.0,-0.0,-0.0
1762666247.5834708,0.0,0.0,1.075,0.0,0.0,1.5,0.0,0.0,0.0,0.0,0.0,0.0,0.0,0.0,0.0,0.0,0.0,0.0,0.0,0.0,43.327000000000005,0.0,0.0,43.327000000000005,0.0,0.0,0.0,21.663500000000003,21.663500000000003,0.0,0.0,0.0,21.663500000000003,21.663500000000003,0.0,0.0,0.0,-0.0,-0.0
1762666247.5848703,0.0,0.0,1.075,0.0,0.0,1.5,0.0,0.0,0.0,0.0,0.0,0.0,0.0,0.0,0.0,0.0,0.0,0.0,0.0,0.0,43.327000000000005,0.0,0.0,43.327000000000005,0.0,0.0,0.0,21.663500000000003,21.663500000000003,0.0,0.0,0.0,21.663500000000003,21.663500000000003,0.0,0.0,0.0,-0.0,-0.0
1762666247.5862978,0.0,0.0,1.075,0.0,0.0,1.5,0.0,0.0,0.0,0.0,0.0,0.0,0.0,0.0,0.0,0.0,0.0,0.0,0.0,0.0,43.327000000000005,0.0,0.0,43.327000000000005,0.0,0.0,0.0,21.663500000000003,21.663500000000003,0.0,0.0,0.0,21.663500000000003,21.663500000000003,0.0,0.0,0.0,-0.0,-0.0
1762666247.5876875,0.0,0.0,1.075,0.0,0.0,1.5,0.0,0.0,0.0,0.0,0.0,0.0,0.0,0.0,0.0,0.0,0.0,0.0,0.0,0.0,43.327000000000005,0.0,0.0,43.327000000000005,0.0,0.0,0.0,21.663500000000003,21.663500000000003,0.0,0.0,0.0,21.663500000000003,21.663500000000003,0.0,0.0,0.0,-0.0,-0.0
1762666247.5891023,0.0,0.0,1.075,0.0,0.0,1.5,0.0,0.0,0.0,0.0,0.0,0.0,0.0,0.0,0.0,0.0,0.0,0.0,0.0,0.0,43.327000000000005,0.0,0.0,43.327000000000005,0.0,0.0,0.0,21.663500000000003,21.663500000000003,0.0,0.0,0.0,21.663500000000003,21.663500000000003,0.0,0.0,0.0,-0.0,-0.0
1762666247.5904968,0.0,0.0,1.075,0.0,0.0,1.5,0.0,0.0,0.0,0.0,0.0,0.0,0.0,0.0,0.0,0.0,0.0,0.0,0.0,0.0,43.327000000000005,0.0,0.0,43.327000000000005,0.0,0.0,0.0,21.663500000000003,21.663500000000003,0.0,0.0,0.0,21.663500000000003,21.663500000000003,0.0,0.0,0.0,-0.0,-0.0
1762666247.5919058,0.0,0.0,1.075,0.0,0.0,1.5,0.0,0.0,0.0,0.0,0.0,0.0,0.0,0.0,0.0,0.0,0.0,0.0,0.0,0.0,43.327000000000005,0.0,0.0,43.327000000000005,0.0,0.0,0.0,21.663500000000003,21.663500000000003,0.0,0.0,0.0,21.663500000000003,21.663500000000003,0.0,0.0,0.0,-0.0,-0.0
1762666247.5933156,0.0,0.0,1.075,0.0,0.0,1.5,0.0,0.0,0.0,0.0,0.0,0.0,0.0,0.0,0.0,0.0,0.0,0.0,0.0,0.0,43.327000000000005,0.0,0.0,43.327000000000005,0.0,0.0,0.0,21.663500000000003,21.663500000000003,0.0,0.0,0.0,21.663500000000003,21.663500000000003,0.0,0.0,0.0,-0.0,-0.0
1762666247.5946867,0.0,0.0,1.075,0.0,0.0,1.5,0.0,0.0,0.0,0.0,0.0,0.0,0.0,0.0,0.0,0.0,0.0,0.0,0.0,0.0,43.327000000000005,0.0,0.0,43.327000000000005,0.0,0.0,0.0,21.663500000000003,21.663500000000003,0.0,0.0,0.0,21.663500000000003,21.663500000000003,0.0,0.0,0.0,-0.0,-0.0
1762666247.59611,0.0,0.0,1.075,0.0,0.0,1.5,0.0,0.0,0.0,0.0,0.0,0.0,0.0,0.0,0.0,0.0,0.0,0.0,0.0,0.0,43.327000000000005,0.0,0.0,43.327000000000005,0.0,0.0,0.0,21.663500000000003,21.663500000000003,0.0,0.0,0.0,21.663500000000003,21.663500000000003,0.0,0.0,0.0,-0.0,-0.0
1762666247.5975187,0.0,0.0,1.075,0.0,0.0,1.5,0.0,0.0,0.0,0.0,0.0,0.0,0.0,0.0,0.0,0.0,0.0,0.0,0.0,0.0,43.327000000000005,0.0,0.0,43.327000000000005,0.0,0.0,0.0,21.663500000000003,21.663500000000003,0.0,0.0,0.0,21.663500000000003,21.663500000000003,0.0,0.0,0.0,-0.0,-0.0
1762666247.6017766,0.0,0.0,1.075,0.0,0.0,1.5,0.0,0.0,0.0,0.0,0.0,0.0,0.0,0.0,0.0,0.0,0.0,0.0,0.0,0.0,43.327000000000005,0.0,0.0,43.327000000000005,0.0,0.0,0.0,21.663500000000003,21.663500000000003,0.0,0.0,0.0,21.663500000000003,21.663500000000003,0.0,0.0,0.0,-0.0,-0.0
1762666247.6032565,0.0,0.0,1.075,0.0,0.0,1.5,0.0,0.0,0.0,0.0,0.0,0.0,0.0,0.0,0.0,0.0,0.0,0.0,0.0,0.0,43.327000000000005,0.0,0.0,43.327000000000005,0.0,0.0,0.0,21.663500000000003,21.663500000000003,0.0,0.0,0.0,21.663500000000003,21.663500000000003,0.0,0.0,0.0,-0.0,-0.0
1762666247.604616,0.0,0.0,1.075,0.0,0.0,1.5,0.0,0.0,0.0,0.0,0.0,0.0,0.0,0.0,0.0,0.0,0.0,0.0,0.0,0.0,43.327000000000005,0.0,0.0,43.327000000000005,0.0,0.0,0.0,21.663500000000003,21.663500000000003,0.0,0.0,0.0,21.663500000000003,21.663500000000003,0.0,0.0,0.0,-0.0,-0.0
1762666247.6060143,0.0,0.0,1.075,0.0,0.0,1.5,0.0,0.0,0.0,0.0,0.0,0.0,0.0,0.0,0.0,0.0,0.0,0.0,0.0,0.0,43.327000000000005,0.0,0.0,43.327000000000005,0.0,0.0,0.0,21.663500000000003,21.663500000000003,0.0,0.0,0.0,21.663500000000003,21.663500000000003,0.0,0.0,0.0,-0.0,-0.0
1762666247.6075325,0.0,0.0,1.075,0.0,0.0,1.5,0.0,0.0,0.0,0.0,0.0,0.0,0.0,0.0,0.0,0.0,0.0,0.0,0.0,0.0,43.327000000000005,0.0,0.0,43.327000000000005,0.0,0.0,0.0,21.663500000000003,21.663500000000003,0.0,0.0,0.0,21.663500000000003,21.663500000000003,0.0,0.0,0.0,-0.0,-0.0
1762666247.6089919,0.0,0.0,1.075,0.0,0.0,1.5,0.0,0.0,0.0,0.0,0.0,0.0,0.0,0.0,0.0,0.0,0.0,0.0,0.0,0.0,43.327000000000005,0.0,0.0,43.327000000000005,0.0,0.0,0.0,21.663500000000003,21.663500000000003,0.0,0.0,0.0,21.663500000000003,21.663500000000003,0.0,0.0,0.0,-0.0,-0.0
1762666247.610392,0.0,0.0,1.075,0.0,0.0,1.5,0.0,0.0,0.0,0.0,0.0,0.0,0.0,0.0,0.0,0.0,0.0,0.0,0.0,0.0,43.327000000000005,0.0,0.0,43.327000000000005,0.0,0.0,0.0,21.663500000000003,21.663500000000003,0.0,0.0,0.0,21.663500000000003,21.663500000000003,0.0,0.0,0.0,-0.0,-0.0
1762666247.6118186,0.0,0.0,1.075,0.0,0.0,1.5,0.0,0.0,0.0,0.0,0.0,0.0,0.0,0.0,0.0,0.0,0.0,0.0,0.0,0.0,43.327000000000005,0.0,0.0,43.327000000000005,0.0,0.0,0.0,21.663500000000003,21.663500000000003,0.0,0.0,0.0,21.663500000000003,21.663500000000003,0.0,0.0,0.0,-0.0,-0.0
1762666247.613164,0.0,0.0,1.075,0.0,0.0,1.5,0.0,0.0,0.0,0.0,0.0,0.0,0.0,0.0,0.0,0.0,0.0,0.0,0.0,0.0,43.327000000000005,0.0,0.0,43.327000000000005,0.0,0.0,0.0,21.663500000000003,21.663500000000003,0.0,0.0,0.0,21.663500000000003,21.663500000000003,0.0,0.0,0.0,-0.0,-0.0
1762666247.6145418,0.0,0.0,1.075,0.0,0.0,1.5,0.0,0.0,0.0,0.0,0.0,0.0,0.0,0.0,0.0,0.0,0.0,0.0,0.0,0.0,43.327000000000005,0.0,0.0,43.327000000000005,0.0,0.0,0.0,21.663500000000003,21.663500000000003,0.0,0.0,0.0,21.663500000000003,21.663500000000003,0.0,0.0,0.0,-0.0,-0.0
1762666247.6159315,0.0,0.0,1.075,0.0,0.0,1.5,0.0,0.0,0.0,0.0,0.0,0.0,0.0,0.0,0.0,0.0,0.0,0.0,0.0,0.0,43.327000000000005,0.0,0.0,43.327000000000005,0.0,0.0,0.0,21.663500000000003,21.663500000000003,0.0,0.0,0.0,21.663500000000003,21.663500000000003,0.0,0.0,0.0,-0.0,-0.0
1762666247.6173363,0.0,0.0,1.075,0.0,0.0,1.5,0.0,0.0,0.0,0.0,0.0,0.0,0.0,0.0,0.0,0.0,0.0,0.0,0.0,0.0,43.327000000000005,0.0,0.0,43.327000000000005,0.0,0.0,0.0,21.663500000000003,21.663500000000003,0.0,0.0,0.0,21.663500000000003,21.663500000000003,0.0,0.0,0.0,-0.0,-0.0
1762666247.6187801,0.0,0.0,1.075,0.0,0.0,1.5,0.0,0.0,0.0,0.0,0.0,0.0,0.0,0.0,0.0,0.0,0.0,0.0,0.0,0.0,43.327000000000005,0.0,0.0,43.327000000000005,0.0,0.0,0.0,21.663500000000003,21.663500000000003,0.0,0.0,0.0,21.663500000000003,21.663500000000003,0.0,0.0,0.0,-0.0,-0.0
1762666247.620153,0.0,0.0,1.075,0.0,0.0,1.5,0.0,0.0,0.0,0.0,0.0,0.0,0.0,0.0,0.0,0.0,0.0,0.0,0.0,0.0,43.327000000000005,0.0,0.0,43.327000000000005,0.0,0.0,0.0,21.663500000000003,21.663500000000003,0.0,0.0,0.0,21.663500000000003,21.663500000000003,0.0,0.0,0.0,-0.0,-0.0
1762666247.6215274,0.0,0.0,1.075,0.0,0.0,1.5,0.0,0.0,0.0,0.0,0.0,0.0,0.0,0.0,0.0,0.0,0.0,0.0,0.0,0.0,43.327000000000005,0.0,0.0,43.327000000000005,0.0,0.0,0.0,21.663500000000003,21.663500000000003,0.0,0.0,0.0,21.663500000000003,21.663500000000003,0.0,0.0,0.0,-0.0,-0.0
1762666247.62295,0.0,0.0,1.075,0.0,0.0,1.5,0.0,0.0,0.0,0.0,0.0,0.0,0.0,0.0,0.0,0.0,0.0,0.0,0.0,0.0,43.327000000000005,0.0,0.0,43.327000000000005,0.0,0.0,0.0,21.663500000000003,21.663500000000003,0.0,0.0,0.0,21.663500000000003,21.663500000000003,0.0,0.0,0.0,-0.0,-0.0
1762666247.6250021,0.0,0.0,1.075,0.0,0.0,1.5,0.0,0.0,0.0,0.0,0.0,0.0,0.0,0.0,0.0,0.0,0.0,0.0,0.0,0.0,43.327000000000005,0.0,0.0,43.327000000000005,0.0,0.0,0.0,21.663500000000003,21.663500000000003,0.0,0.0,0.0,21.663500000000003,21.663500000000003,0.0,0.0,0.0,-0.0,-0.0
1762666247.626583,0.0,0.0,1.075,0.0,0.0,1.5,0.0,0.0,0.0,0.0,0.0,0.0,0.0,0.0,0.0,0.0,0.0,0.0,0.0,0.0,43.327000000000005,0.0,0.0,43.327000000000005,0.0,0.0,0.0,21.663500000000003,21.663500000000003,0.0,0.0,0.0,21.663500000000003,21.663500000000003,0.0,0.0,0.0,-0.0,-0.0
1762666247.6282313,0.0,0.0,1.075,0.0,0.0,1.5,0.0,0.0,0.0,0.0,0.0,0.0,0.0,0.0,0.0,0.0,0.0,0.0,0.0,0.0,43.327000000000005,0.0,0.0,43.327000000000005,0.0,0.0,0.0,21.663500000000003,21.663500000000003,0.0,0.0,0.0,21.663500000000003,21.663500000000003,0.0,0.0,0.0,-0.0,-0.0
1762666247.629827,0.0,0.0,1.075,0.0,0.0,1.5,0.0,0.0,0.0,0.0,0.0,0.0,0.0,0.0,0.0,0.0,0.0,0.0,0.0,0.0,43.327000000000005,0.0,0.0,43.327000000000005,0.0,0.0,0.0,21.663500000000003,21.663500000000003,0.0,0.0,0.0,21.663500000000003,21.663500000000003,0.0,0.0,0.0,-0.0,-0.0
1762666247.6312313,0.0,0.0,1.075,0.0,0.0,1.5,3.842314068777133e-25,0.0,0.0,-1.8296595171783183e-24,1.5721191315462923e-49,0.0,-6.602900352495067e-47,-7.68456997214968e-22,-1.5255739799832908e-42,0.0,0.0,0.0,0.0,0.0,43.327000000000005,0.0,0.0,43.327000000000005,0.0,0.0,0.0,21.663500000000003,21.663500000000003,0.0,0.0,0.0,21.663500000000003,21.663500000000003,0.0,0.0,0.0,-0.0,-0.0
1762666247.6325905,0.0,0.0,1.075,0.0,0.0,1.5,3.842314068777133e-25,0.0,0.0,-1.8296595171783183e-24,1.5721191315462923e-49,0.0,-6.602900352495067e-47,-7.68456997214968e-22,-1.5255739799832908e-42,0.0,0.0,0.0,1.8296595171783182e-23,5.3852536103456124e-40,43.327000000000005,1.8296595171783182e-23,1.6647594165790687e-23,43.327000000000005,-1.9211570343885665e-25,3.8422849860748405e-23,7.627869899916454e-44,21.663500000000003,21.663500000000003,6.403808310124734e-23,4.222908387791258e-25,4.222908387791258e-25,21.663500000000003,21.663500000000003,6.403808310124734e-23,4.222908387791258e-25,4.222908387791258e-25,-3.842314068777133e-25,-3.842314068777133e-25
1762666247.6341133,0.0,0.0,1.075,0.0,0.0,1.5,3.842314068777133e-25,0.0,0.0,-1.8296595171783183e-24,1.5721191315462923e-49,0.0,-6.602900352495067e-47,-7.68456997214968e-22,-1.5255739799832908e-42,0.0,0.0,0.0,1.8296595171783182e-23,5.3852536103456124e-40,43.327000000000005,1.8296595171783182e-23,1.6647594165790687e-23,43.327000000000005,-1.9211570343885665e-25,3.8422849860748405e-23,7.627869899916454e-44,21.663500000000003,21.663500000000003,6.403808310124734e-23,4.222908387791258e-25,4.222908387791258e-25,21.663500000000003,21.663500000000003,6.403808310124734e-23,4.222908387791258e-25,4.222908387791258e-25,-3.842314068777133e-25,-3.842314068777133e-25
1762666247.6355245,0.0,0.0,1.075,0.0,0.0,1.5,3.842314068777133e-25,0.0,0.0,-1.8296595171783183e-24,1.5721191315462923e-49,0.0,-6.602900352495067e-47,-7.68456997214968e-22,-1.5255739799832908e-42,0.0,0.0,0.0,1.8296595171783182e-23,5.3852536103456124e-40,43.327000000000005,1.8296595171783182e-23,1.6647594165790687e-23,43.327000000000005,-1.9211570343885665e-25,3.8422849860748405e-23,7.627869899916454e-44,21.663500000000003,21.663500000000003,6.403808310124734e-23,4.222908387791258e-25,4.222908387791258e-25,21.663500000000003,21.663500000000003,6.403808310124734e-23,4.222908387791258e-25,4.222908387791258e-25,-3.842314068777133e-25,-3.842314068777133e-25
1762666247.6369212,0.0,0.0,1.075,0.0,0.0,1.5,3.842314068777133e-25,0.0,0.0,-1.8296595171783183e-24,1.5721191315462923e-49,0.0,-6.602900352495067e-47,-7.68456997214968e-22,-1.5255739799832908e-42,0.0,0.0,0.0,1.8296595171783182e-23,5.3852536103456124e-40,43.327000000000005,1.8296595171783182e-23,1.6647594165790687e-23,43.327000000000005,-1.9211570343885665e-25,3.8422849860748405e-23,7.627869899916454e-44,21.663500000000003,21.663500000000003,6.403808310124734e-23,4.222908387791258e-25,4.222908387791258e-25,21.663500000000003,21.663500000000003,6.403808310124734e-23,4.222908387791258e-25,4.222908387791258e-25,-3.842314068777133e-25,-3.842314068777133e-25
1762666247.6382873,0.0,0.0,1.075,0.0,0.0,1.5,3.842314068777133e-25,0.0,0.0,-1.8296595171783183e-24,1.5721191315462923e-49,0.0,-6.602900352495067e-47,-7.68456997214968e-22,-1.5255739799832908e-42,0.0,0.0,0.0,1.8296595171783182e-23,5.3852536103456124e-40,43.327000000000005,1.8296595171783182e-23,1.6647594165790687e-23,43.327000000000005,-1.9211570343885665e-25,3.8422849860748405e-23,7.627869899916454e-44,21.663500000000003,21.663500000000003,6.403808310124734e-23,4.222908387791258e-25,4.222908387791258e-25,21.663500000000003,21.663500000000003,6.403808310124734e-23,4.222908387791258e-25,4.222908387791258e-25,-3.842314068777133e-25,-3.842314068777133e-25
1762666247.6396036,0.0,0.0,1.075,0.0,0.0,1.5,3.842314068777133e-25,0.0,0.0,-1.8296595171783183e-24,1.5721191315462923e-49,0.0,-6.602900352495067e-47,-7.68456997214968e-22,-1.5255739799832908e-42,0.0,0.0,0.0,1.8296595171783182e-23,5.3852536103456124e-40,43.327000000000005,1.8296595171783182e-23,1.6647594165790687e-23,43.327000000000005,-1.9211570343885665e-25,3.8422849860748405e-23,7.627869899916454e-44,21.663500000000003,21.663500000000003,6.403808310124734e-23,4.222908387791258e-25,4.222908387791258e-25,21.663500000000003,21.663500000000003,6.403808310124734e-23,4.222908387791258e-25,4.222908387791258e-25,-3.842314068777133e-25,-3.842314068777133e-25
1762666247.6410537,0.0,0.0,1.075,0.0,0.0,1.5,3.842314068777133e-25,0.0,0.0,-1.8296595171783183e-24,1.5721191315462923e-49,0.0,-6.602900352495067e-47,-7.68456997214968e-22,-1.5255739799832908e-42,0.0,0.0,0.0,1.8296595171783182e-23,5.3852536103456124e-40,43.327000000000005,1.8296595171783182e-23,1.6647594165790687e-23,43.327000000000005,-1.9211570343885665e-25,3.8422849860748405e-23,7.627869899916454e-44,21.663500000000003,21.663500000000003,6.403808310124734e-23,4.222908387791258e-25,4.222908387791258e-25,21.663500000000003,21.663500000000003,6.403808310124734e-23,4.222908387791258e-25,4.222908387791258e-25,-3.842314068777133e-25,-3.842314068777133e-25
1762666247.6425676,0.0,0.0,1.075,0.0,0.0,1.5,3.842314068777133e-25,0.0,0.0,-1.8296595171783183e-24,1.5721191315462923e-49,0.0,-6.602900352495067e-47,-7.68456997214968e-22,-1.5255739799832908e-42,0.0,0.0,0.0,1.8296595171783182e-23,5.3852536103456124e-40,43.327000000000005,1.8296595171783182e-23,1.6647594165790687e-23,43.327000000000005,-1.9211570343885665e-25,3.8422849860748405e-23,7.627869899916454e-44,21.663500000000003,21.663500000000003,6.403808310124734e-23,4.222908387791258e-25,4.222908387791258e-25,21.663500000000003,21.663500000000003,6.403808310124734e-23,4.222908387791258e-25,4.222908387791258e-25,-3.842314068777133e-25,-3.842314068777133e-25
1762666247.644016,0.0,0.0,1.075,0.0,0.0,1.5,3.842314068777133e-25,0.0,0.0,-1.8296595171783183e-24,1.5721191315462923e-49,0.0,-6.602900352495067e-47,-7.68456997214968e-22,-1.5255739799832908e-42,0.0,0.0,0.0,1.8296595171783182e-23,5.3852536103456124e-40,43.327000000000005,1.8296595171783182e-23,1.6647594165790687e-23,43.327000000000005,-1.9211570343885665e-25,3.8422849860748405e-23,7.627869899916454e-44,21.663500000000003,21.663500000000003,6.403808310124734e-23,4.222908387791258e-25,4.222908387791258e-25,21.663500000000003,21.663500000000003,6.403808310124734e-23,4.222908387791258e-25,4.222908387791258e-25,-3.842314068777133e-25,-3.842314068777133e-25
1762666247.6454184,0.0,0.0,1.075,0.0,0.0,1.5,3.842314068777133e-25,0.0,0.0,-1.8296595171783183e-24,1.5721191315462923e-49,0.0,-6.602900352495067e-47,-7.68456997214968e-22,-1.5255739799832908e-42,0.0,0.0,0.0,1.8296595171783182e-23,5.3852536103456124e-40,43.327000000000005,1.8296595171783182e-23,1.6647594165790687e-23,43.327000000000005,-1.9211570343885665e-25,3.8422849860748405e-23,7.627869899916454e-44,21.663500000000003,21.663500000000003,6.403808310124734e-23,4.222908387791258e-25,4.222908387791258e-25,21.663500000000003,21.663500000000003,6.403808310124734e-23,4.222908387791258e-25,4.222908387791258e-25,-3.842314068777133e-25,-3.842314068777133e-25
1762666247.6467438,0.0,0.0,1.075,0.0,0.0,1.5,3.842314068777133e-25,0.0,0.0,-1.8296595171783183e-24,1.5721191315462923e-49,0.0,-6.602900352495067e-47,-7.68456997214968e-22,-1.5255739799832908e-42,0.0,0.0,0.0,1.8296595171783182e-23,5.3852536103456124e-40,43.327000000000005,1.8296595171783182e-23,1.6647594165790687e-23,43.327000000000005,-1.9211570343885665e-25,3.8422849860748405e-23,7.627869899916454e-44,21.663500000000003,21.663500000000003,6.403808310124734e-23,4.222908387791258e-25,4.222908387791258e-25,21.663500000000003,21.663500000000003,6.403808310124734e-23,4.222908387791258e-25,4.222908387791258e-25,-3.842314068777133e-25,-3.842314068777133e-25
1762666247.6479838,0.0,0.0,1.075,0.0,0.0,1.5,3.842314068777133e-25,0.0,0.0,-1.8296595171783183e-24,1.5721191315462923e-49,0.0,-6.602900352495067e-47,-7.68456997214968e-22,-1.5255739799832908e-42,0.0,0.0,0.0,1.8296595171783182e-23,5.3852536103456124e-40,43.327000000000005,1.8296595171783182e-23,1.6647594165790687e-23,43.327000000000005,-1.9211570343885665e-25,3.8422849860748405e-23,7.627869899916454e-44,21.663500000000003,21.663500000000003,6.403808310124734e-23,4.222908387791258e-25,4.222908387791258e-25,21.663500000000003,21.663500000000003,6.403808310124734e-23,4.222908387791258e-25,4.222908387791258e-25,-3.842314068777133e-25,-3.842314068777133e-25
1762666247.6493962,0.0,0.0,1.075,0.0,0.0,1.5,3.842314068777133e-25,0.0,0.0,-1.8296595171783183e-24,1.5721191315462923e-49,0.0,-6.602900352495067e-47,-7.68456997214968e-22,-1.5255739799832908e-42,0.0,0.0,0.0,1.8296595171783182e-23,5.3852536103456124e-40,43.327000000000005,1.8296595171783182e-23,1.6647594165790687e-23,43.327000000000005,-1.9211570343885665e-25,3.8422849860748405e-23,7.627869899916454e-44,21.663500000000003,21.663500000000003,6.403808310124734e-23,4.222908387791258e-25,4.222908387791258e-25,21.663500000000003,21.663500000000003,6.403808310124734e-23,4.222908387791258e-25,4.222908387791258e-25,-3.842314068777133e-25,-3.842314068777133e-25
1762666247.6508842,0.0,0.0,1.075,0.0,0.0,1.5,3.842314068777133e-25,0.0,0.0,-1.8296595171783183e-24,1.5721191315462923e-49,0.0,-6.602900352495067e-47,-7.68456997214968e-22,-1.5255739799832908e-42,0.0,0.0,0.0,1.8296595171783182e-23,5.3852536103456124e-40,43.327000000000005,1.8296595171783182e-23,1.6647594165790687e-23,43.327000000000005,-1.9211570343885665e-25,3.8422849860748405e-23,7.627869899916454e-44,21.663500000000003,21.663500000000003,6.403808310124734e-23,4.222908387791258e-25,4.222908387791258e-25,21.663500000000003,21.663500000000003,6.403808310124734e-23,4.222908387791258e-25,4.222908387791258e-25,-3.842314068777133e-25,-3.842314068777133e-25
1762666247.652276,0.0,0.0,1.075,0.0,0.0,1.5,3.842314068777133e-25,0.0,0.0,-1.8296595171783183e-24,1.5721191315462923e-49,0.0,-6.602900352495067e-47,-7.68456997214968e-22,-1.5255739799832908e-42,0.0,0.0,0.0,1.8296595171783182e-23,5.3852536103456124e-40,43.327000000000005,1.8296595171783182e-23,1.6647594165790687e-23,43.327000000000005,-1.9211570343885665e-25,3.8422849860748405e-23,7.627869899916454e-44,21.663500000000003,21.663500000000003,6.403808310124734e-23,4.222908387791258e-25,4.222908387791258e-25,21.663500000000003,21.663500000000003,6.403808310124734e-23,4.222908387791258e-25,4.222908387791258e-25,-3.842314068777133e-25,-3.842314068777133e-25
1762666247.6535668,0.0,0.0,1.075,0.0,0.0,1.5,3.842314068777133e-25,0.0,0.0,-1.8296595171783183e-24,1.5721191315462923e-49,0.0,-6.602900352495067e-47,-7.68456997214968e-22,-1.5255739799832908e-42,0.0,0.0,0.0,1.8296595171783182e-23,5.3852536103456124e-40,43.327000000000005,1.8296595171783182e-23,1.6647594165790687e-23,43.327000000000005,-1.9211570343885665e-25,3.8422849860748405e-23,7.627869899916454e-44,21.663500000000003,21.663500000000003,6.403808310124734e-23,4.222908387791258e-25,4.222908387791258e-25,21.663500000000003,21.663500000000003,6.403808310124734e-23,4.222908387791258e-25,4.222908387791258e-25,-3.842314068777133e-25,-3.842314068777133e-25
1762666247.654904,0.0,0.0,1.075,0.0,0.0,1.5,3.842314068777133e-25,0.0,0.0,-1.8296595171783183e-24,1.5721191315462923e-49,0.0,-6.602900352495067e-47,-7.68456997214968e-22,-1.5255739799832908e-42,0.0,0.0,0.0,1.8296595171783182e-23,5.3852536103456124e-40,43.327000000000005,1.8296595171783182e-23,1.6647594165790687e-23,43.327000000000005,-1.9211570343885665e-25,3.8422849860748405e-23,7.627869899916454e-44,21.663500000000003,21.663500000000003,6.403808310124734e-23,4.222908387791258e-25,4.222908387791258e-25,21.663500000000003,21.663500000000003,6.403808310124734e-23,4.222908387791258e-25,4.222908387791258e-25,-3.842314068777133e-25,-3.842314068777133e-25
1762666247.6562393,0.0,0.0,1.075,0.0,0.0,1.5,3.842314068777133e-25,0.0,0.0,-1.8296595171783183e-24,1.5721191315462923e-49,0.0,-6.602900352495067e-47,-7.68456997214968e-22,-1.5255739799832908e-42,0.0,0.0,0.0,1.8296595171783182e-23,5.3852536103456124e-40,43.327000000000005,1.8296595171783182e-23,1.6647594165790687e-23,43.327000000000005,-1.9211570343885665e-25,3.8422849860748405e-23,7.627869899916454e-44,21.663500000000003,21.663500000000003,6.403808310124734e-23,4.222908387791258e-25,4.222908387791258e-25,21.663500000000003,21.663500000000003,6.403808310124734e-23,4.222908387791258e-25,4.222908387791258e-25,-3.842314068777133e-25,-3.842314068777133e-25
1762666247.6576035,0.0,0.0,1.075,0.0,0.0,1.5,3.842314068777133e-25,0.0,0.0,-1.8296595171783183e-24,1.5721191315462923e-49,0.0,-6.602900352495067e-47,-7.68456997214968e-22,-1.5255739799832908e-42,0.0,0.0,0.0,1.8296595171783182e-23,5.3852536103456124e-40,43.327000000000005,1.8296595171783182e-23,1.6647594165790687e-23,43.327000000000005,-1.9211570343885665e-25,3.8422849860748405e-23,7.627869899916454e-44,21.663500000000003,21.663500000000003,6.403808310124734e-23,4.222908387791258e-25,4.222908387791258e-25,21.663500000000003,21.663500000000003,6.403808310124734e-23,4.222908387791258e-25,4.222908387791258e-25,-3.842314068777133e-25,-3.842314068777133e-25
1762666247.6591046,0.0,0.0,1.075,0.0,0.0,1.5,3.842314068777133e-25,0.0,0.0,-1.8296595171783183e-24,1.5721191315462923e-49,0.0,-6.602900352495067e-47,-7.68456997214968e-22,-1.5255739799832908e-42,0.0,0.0,0.0,1.8296595171783182e-23,5.3852536103456124e-40,43.327000000000005,1.8296595171783182e-23,1.6647594165790687e-23,43.327000000000005,-1.9211570343885665e-25,3.8422849860748405e-23,7.627869899916454e-44,21.663500000000003,21.663500000000003,6.403808310124734e-23,4.222908387791258e-25,4.222908387791258e-25,21.663500000000003,21.663500000000003,6.403808310124734e-23,4.222908387791258e-25,4.222908387791258e-25,-3.842314068777133e-25,-3.842314068777133e-25
1762666247.6605978,0.0,0.0,1.075,0.0,0.0,1.5,3.842314068777133e-25,0.0,0.0,-1.8296595171783183e-24,1.5721191315462923e-49,0.0,-6.602900352495067e-47,-7.68456997214968e-22,-1.5255739799832908e-42,0.0,0.0,0.0,1.8296595171783182e-23,5.3852536103456124e-40,43.327000000000005,1.8296595171783182e-23,1.6647594165790687e-23,43.327000000000005,-1.9211570343885665e-25,3.8422849860748405e-23,7.627869899916454e-44,21.663500000000003,21.663500000000003,6.403808310124734e-23,4.222908387791258e-25,4.222908387791258e-25,21.663500000000003,21.663500000000003,6.403808310124734e-23,4.222908387791258e-25,4.222908387791258e-25,-3.842314068777133e-25,-3.842314068777133e-25
1762666247.6620429,0.0,0.0,1.075,0.0,0.0,1.5,3.842314068777133e-25,0.0,0.0,-1.8296595171783183e-24,1.5721191315462923e-49,0.0,-6.602900352495067e-47,-7.68456997214968e-22,-1.5255739799832908e-42,0.0,0.0,0.0,1.8296595171783182e-23,5.3852536103456124e-40,43.327000000000005,1.8296595171783182e-23,1.6647594165790687e-23,43.327000000000005,-1.9211570343885665e-25,3.8422849860748405e-23,7.627869899916454e-44,21.663500000000003,21.663500000000003,6.403808310124734e-23,4.222908387791258e-25,4.222908387791258e-25,21.663500000000003,21.663500000000003,6.403808310124734e-23,4.222908387791258e-25,4.222908387791258e-25,-3.842314068777133e-25,-3.842314068777133e-25
1762666247.6633558,0.0,0.0,1.075,0.0,0.0,1.5,3.842314068777133e-25,0.0,0.0,-1.8296595171783183e-24,1.5721191315462923e-49,0.0,-6.602900352495067e-47,-7.68456997214968e-22,-1.5255739799832908e-42,0.0,0.0,0.0,1.8296595171783182e-23,5.3852536103456124e-40,43.327000000000005,1.8296595171783182e-23,1.6647594165790687e-23,43.327000000000005,-1.9211570343885665e-25,3.8422849860748405e-23,7.627869899916454e-44,21.663500000000003,21.663500000000003,6.403808310124734e-23,4.222908387791258e-25,4.222908387791258e-25,21.663500000000003,21.663500000000003,6.403808310124734e-23,4.222908387791258e-25,4.222908387791258e-25,-3.842314068777133e-25,-3.842314068777133e-25
1762666247.6646085,0.0,0.0,1.075,0.0,0.0,1.5,3.842314068777133e-25,0.0,0.0,-1.8296595171783183e-24,1.5721191315462923e-49,0.0,-6.602900352495067e-47,-7.68456997214968e-22,-1.5255739799832908e-42,0.0,0.0,0.0,1.8296595171783182e-23,5.3852536103456124e-40,43.327000000000005,1.8296595171783182e-23,1.6647594165790687e-23,43.327000000000005,-1.9211570343885665e-25,3.8422849860748405e-23,7.627869899916454e-44,21.663500000000003,21.663500000000003,6.403808310124734e-23,4.222908387791258e-25,4.222908387791258e-25,21.663500000000003,21.663500000000003,6.403808310124734e-23,4.222908387791258e-25,4.222908387791258e-25,-3.842314068777133e-25,-3.842314068777133e-25
1762666247.6659975,0.0,0.0,1.075,0.0,0.0,1.5,3.842314068777133e-25,0.0,0.0,-1.8296595171783183e-24,1.5721191315462923e-49,0.0,-6.602900352495067e-47,-7.68456997214968e-22,-1.5255739799832908e-42,0.0,0.0,0.0,1.8296595171783182e-23,5.3852536103456124e-40,43.327000000000005,1.8296595171783182e-23,1.6647594165790687e-23,43.327000000000005,-1.9211570343885665e-25,3.8422849860748405e-23,7.627869899916454e-44,21.663500000000003,21.663500000000003,6.403808310124734e-23,4.222908387791258e-25,4.222908387791258e-25,21.663500000000003,21.663500000000003,6.403808310124734e-23,4.222908387791258e-25,4.222908387791258e-25,-3.842314068777133e-25,-3.842314068777133e-25
1762666247.6674685,0.0,0.0,1.075,0.0,0.0,1.5,3.842314068777133e-25,0.0,0.0,-1.8296595171783183e-24,1.5721191315462923e-49,0.0,-6.602900352495067e-47,-7.68456997214968e-22,-1.5255739799832908e-42,0.0,0.0,0.0,1.8296595171783182e-23,5.3852536103456124e-40,43.327000000000005,1.8296595171783182e-23,1.6647594165790687e-23,43.327000000000005,-1.9211570343885665e-25,3.8422849860748405e-23,7.627869899916454e-44,21.663500000000003,21.663500000000003,6.403808310124734e-23,4.222908387791258e-25,4.222908387791258e-25,21.663500000000003,21.663500000000003,6.403808310124734e-23,4.222908387791258e-25,4.222908387791258e-25,-3.842314068777133e-25,-3.842314068777133e-25
1762666247.6689618,0.0,0.0,1.075,0.0,0.0,1.5,3.842314068777133e-25,0.0,0.0,-1.8296595171783183e-24,1.5721191315462923e-49,0.0,-6.602900352495067e-47,-7.68456997214968e-22,-1.5255739799832908e-42,0.0,0.0,0.0,1.8296595171783182e-23,5.3852536103456124e-40,43.327000000000005,1.8296595171783182e-23,1.6647594165790687e-23,43.327000000000005,-1.9211570343885665e-25,3.8422849860748405e-23,7.627869899916454e-44,21.663500000000003,21.663500000000003,6.403808310124734e-23,4.222908387791258e-25,4.222908387791258e-25,21.663500000000003,21.663500000000003,6.403808310124734e-23,4.222908387791258e-25,4.222908387791258e-25,-3.842314068777133e-25,-3.842314068777133e-25
1762666247.6703084,0.0,0.0,1.075,0.0,0.0,1.5,3.842314068777133e-25,0.0,0.0,-1.8296595171783183e-24,1.5721191315462923e-49,0.0,-6.602900352495067e-47,-7.68456997214968e-22,-1.5255739799832908e-42,0.0,0.0,0.0,1.8296595171783182e-23,5.3852536103456124e-40,43.327000000000005,1.8296595171783182e-23,1.6647594165790687e-23,43.327000000000005,-1.9211570343885665e-25,3.8422849860748405e-23,7.627869899916454e-44,21.663500000000003,21.663500000000003,6.403808310124734e-23,4.222908387791258e-25,4.222908387791258e-25,21.663500000000003,21.663500000000003,6.403808310124734e-23,4.222908387791258e-25,4.222908387791258e-25,-3.842314068777133e-25,-3.842314068777133e-25
1762666247.6715684,0.0,0.0,1.075,0.0,0.0,1.5,3.842314068777133e-25,0.0,0.0,-1.8296595171783183e-24,1.5721191315462923e-49,0.0,-6.602900352495067e-47,-7.68456997214968e-22,-1.5255739799832908e-42,0.0,0.0,0.0,1.8296595171783182e-23,5.3852536103456124e-40,43.327000000000005,1.8296595171783182e-23,1.6647594165790687e-23,43.327000000000005,-1.9211570343885665e-25,3.8422849860748405e-23,7.627869899916454e-44,21.663500000000003,21.663500000000003,6.403808310124734e-23,4.222908387791258e-25,4.222908387791258e-25,21.663500000000003,21.663500000000003,6.403808310124734e-23,4.222908387791258e-25,4.222908387791258e-25,-3.842314068777133e-25,-3.842314068777133e-25
1762666247.6729112,0.0,0.0,1.075,0.0,0.0,1.5,3.842314068777133e-25,0.0,0.0,-1.8296595171783183e-24,1.5721191315462923e-49,0.0,-6.602900352495067e-47,-7.68456997214968e-22,-1.5255739799832908e-42,0.0,0.0,0.0,1.8296595171783182e-23,5.3852536103456124e-40,43.327000000000005,1.8296595171783182e-23,1.6647594165790687e-23,43.327000000000005,-1.9211570343885665e-25,3.8422849860748405e-23,7.627869899916454e-44,21.663500000000003,21.663500000000003,6.403808310124734e-23,4.222908387791258e-25,4.222908387791258e-25,21.663500000000003,21.663500000000003,6.403808310124734e-23,4.222908387791258e-25,4.222908387791258e-25,-3.842314068777133e-25,-3.842314068777133e-25
1762666247.6743042,0.0,0.0,1.075,0.0,0.0,1.5,3.842314068777133e-25,0.0,0.0,-1.8296595171783183e-24,1.5721191315462923e-49,0.0,-6.602900352495067e-47,-7.68456997214968e-22,-1.5255739799832908e-42,0.0,0.0,0.0,1.8296595171783182e-23,5.3852536103456124e-40,43.327000000000005,1.8296595171783182e-23,1.6647594165790687e-23,43.327000000000005,-1.9211570343885665e-25,3.8422849860748405e-23,7.627869899916454e-44,21.663500000000003,21.663500000000003,6.403808310124734e-23,4.222908387791258e-25,4.222908387791258e-25,21.663500000000003,21.663500000000003,6.403808310124734e-23,4.222908387791258e-25,4.222908387791258e-25,-3.842314068777133e-25,-3.842314068777133e-25
1762666247.6758962,0.0,0.0,1.075,0.0,0.0,1.5,3.842314068777133e-25,0.0,0.0,-1.8296595171783183e-24,1.5721191315462923e-49,0.0,-6.602900352495067e-47,-7.68456997214968e-22,-1.5255739799832908e-42,0.0,0.0,0.0,1.8296595171783182e-23,5.3852536103456124e-40,43.327000000000005,1.8296595171783182e-23,1.6647594165790687e-23,43.327000000000005,-1.9211570343885665e-25,3.8422849860748405e-23,7.627869899916454e-44,21.663500000000003,21.663500000000003,6.403808310124734e-23,4.222908387791258e-25,4.222908387791258e-25,21.663500000000003,21.663500000000003,6.403808310124734e-23,4.222908387791258e-25,4.222908387791258e-25,-3.842314068777133e-25,-3.842314068777133e-25
1762666247.6775973,0.0,0.0,1.075,0.0,0.0,1.5,3.842314068777133e-25,0.0,0.0,-1.8296595171783183e-24,1.5721191315462923e-49,0.0,-6.602900352495067e-47,-7.68456997214968e-22,-1.5255739799832908e-42,0.0,0.0,0.0,1.8296595171783182e-23,5.3852536103456124e-40,43.327000000000005,1.8296595171783182e-23,1.6647594165790687e-23,43.327000000000005,-1.9211570343885665e-25,3.8422849860748405e-23,7.627869899916454e-44,21.663500000000003,21.663500000000003,6.403808310124734e-23,4.222908387791258e-25,4.222908387791258e-25,21.663500000000003,21.663500000000003,6.403808310124734e-23,4.222908387791258e-25,4.222908387791258e-25,-3.842314068777133e-25,-3.842314068777133e-25
1762666247.6791139,0.0,0.0,1.075,0.0,0.0,1.5,3.842314068777133e-25,0.0,0.0,-1.8296595171783183e-24,1.5721191315462923e-49,0.0,-6.602900352495067e-47,-7.68456997214968e-22,-1.5255739799832908e-42,0.0,0.0,0.0,1.8296595171783182e-23,5.3852536103456124e-40,43.327000000000005,1.8296595171783182e-23,1.6647594165790687e-23,43.327000000000005,-1.9211570343885665e-25,3.8422849860748405e-23,7.627869899916454e-44,21.663500000000003,21.663500000000003,6.403808310124734e-23,4.222908387791258e-25,4.222908387791258e-25,21.663500000000003,21.663500000000003,6.403808310124734e-23,4.222908387791258e-25,4.222908387791258e-25,-3.842314068777133e-25,-3.842314068777133e-25
1762666247.6804416,0.0,0.0,1.075,0.0,0.0,1.5,3.842314068777133e-25,0.0,0.0,-1.8296595171783183e-24,1.5721191315462923e-49,0.0,-6.602900352495067e-47,-7.68456997214968e-22,-1.5255739799832908e-42,0.0,0.0,0.0,1.8296595171783182e-23,5.3852536103456124e-40,43.327000000000005,1.8296595171783182e-23,1.6647594165790687e-23,43.327000000000005,-1.9211570343885665e-25,3.8422849860748405e-23,7.627869899916454e-44,21.663500000000003,21.663500000000003,6.403808310124734e-23,4.222908387791258e-25,4.222908387791258e-25,21.663500000000003,21.663500000000003,6.403808310124734e-23,4.222908387791258e-25,4.222908387791258e-25,-3.842314068777133e-25,-3.842314068777133e-25
1762666247.6817915,0.0,0.0,1.075,0.0,0.0,1.5,3.842314068777133e-25,0.0,0.0,-1.8296595171783183e-24,1.5721191315462923e-49,0.0,-6.602900352495067e-47,-7.68456997214968e-22,-1.5255739799832908e-42,0.0,0.0,0.0,1.8296595171783182e-23,5.3852536103456124e-40,43.327000000000005,1.8296595171783182e-23,1.6647594165790687e-23,43.327000000000005,-1.9211570343885665e-25,3.8422849860748405e-23,7.627869899916454e-44,21.663500000000003,21.663500000000003,6.403808310124734e-23,4.222908387791258e-25,4.222908387791258e-25,21.663500000000003,21.663500000000003,6.403808310124734e-23,4.222908387791258e-25,4.222908387791258e-25,-3.842314068777133e-25,-3.842314068777133e-25
1762666247.6832602,0.0,0.0,1.075,0.0,0.0,1.5,3.842314068777133e-25,0.0,0.0,-1.8296595171783183e-24,1.5721191315462923e-49,0.0,-6.602900352495067e-47,-7.68456997214968e-22,-1.5255739799832908e-42,0.0,0.0,0.0,1.8296595171783182e-23,5.3852536103456124e-40,43.327000000000005,1.8296595171783182e-23,1.6647594165790687e-23,43.327000000000005,-1.9211570343885665e-25,3.8422849860748405e-23,7.627869899916454e-44,21.663500000000003,21.663500000000003,6.403808310124734e-23,4.222908387791258e-25,4.222908387791258e-25,21.663500000000003,21.663500000000003,6.403808310124734e-23,4.222908387791258e-25,4.222908387791258e-25,-3.842314068777133e-25,-3.842314068777133e-25
1762666247.684746,0.0,0.0,1.075,0.0,0.0,1.5,3.842314068777133e-25,0.0,0.0,-1.8296595171783183e-24,1.5721191315462923e-49,0.0,-6.602900352495067e-47,-7.68456997214968e-22,-1.5255739799832908e-42,0.0,0.0,0.0,1.8296595171783182e-23,5.3852536103456124e-40,43.327000000000005,1.8296595171783182e-23,1.6647594165790687e-23,43.327000000000005,-1.9211570343885665e-25,3.8422849860748405e-23,7.627869899916454e-44,21.663500000000003,21.663500000000003,6.403808310124734e-23,4.222908387791258e-25,4.222908387791258e-25,21.663500000000003,21.663500000000003,6.403808310124734e-23,4.222908387791258e-25,4.222908387791258e-25,-3.842314068777133e-25,-3.842314068777133e-25
1762666247.6862047,0.0,0.0,1.075,0.0,0.0,1.5,3.842314068777133e-25,0.0,0.0,-1.8296595171783183e-24,1.5721191315462923e-49,0.0,-6.602900352495067e-47,-7.68456997214968e-22,-1.5255739799832908e-42,0.0,0.0,0.0,1.8296595171783182e-23,5.3852536103456124e-40,43.327000000000005,1.8296595171783182e-23,1.6647594165790687e-23,43.327000000000005,-1.9211570343885665e-25,3.8422849860748405e-23,7.627869899916454e-44,21.663500000000003,21.663500000000003,6.403808310124734e-23,4.222908387791258e-25,4.222908387791258e-25,21.663500000000003,21.663500000000003,6.403808310124734e-23,4.222908387791258e-25,4.222908387791258e-25,-3.842314068777133e-25,-3.842314068777133e-25
1762666247.6875303,0.0,0.0,1.075,0.0,0.0,1.5,3.842314068777133e-25,0.0,0.0,-1.8296595171783183e-24,1.5721191315462923e-49,0.0,-6.602900352495067e-47,-7.68456997214968e-22,-1.5255739799832908e-42,0.0,0.0,0.0,1.8296595171783182e-23,5.3852536103456124e-40,43.327000000000005,1.8296595171783182e-23,1.6647594165790687e-23,43.327000000000005,-1.9211570343885665e-25,3.8422849860748405e-23,7.627869899916454e-44,21.663500000000003,21.663500000000003,6.403808310124734e-23,4.222908387791258e-25,4.222908387791258e-25,21.663500000000003,21.663500000000003,6.403808310124734e-23,4.222908387791258e-25,4.222908387791258e-25,-3.842314068777133e-25,-3.842314068777133e-25
1762666247.6887994,0.0,0.0,1.075,0.0,0.0,1.5,3.842314068777133e-25,0.0,0.0,-1.8296595171783183e-24,1.5721191315462923e-49,0.0,-6.602900352495067e-47,-7.68456997214968e-22,-1.5255739799832908e-42,0.0,0.0,0.0,1.8296595171783182e-23,5.3852536103456124e-40,43.327000000000005,1.8296595171783182e-23,1.6647594165790687e-23,43.327000000000005,-1.9211570343885665e-25,3.8422849860748405e-23,7.627869899916454e-44,21.663500000000003,21.663500000000003,6.403808310124734e-23,4.222908387791258e-25,4.222908387791258e-25,21.663500000000003,21.663500000000003,6.403808310124734e-23,4.222908387791258e-25,4.222908387791258e-25,-3.842314068777133e-25,-3.842314068777133e-25
1762666247.6903114,0.0,0.0,1.075,0.0,0.0,1.5,3.842314068777133e-25,0.0,0.0,-1.8296595171783183e-24,1.5721191315462923e-49,0.0,-6.602900352495067e-47,-7.68456997214968e-22,-1.5255739799832908e-42,0.0,0.0,0.0,1.8296595171783182e-23,5.3852536103456124e-40,43.327000000000005,1.8296595171783182e-23,1.6647594165790687e-23,43.327000000000005,-1.9211570343885665e-25,3.8422849860748405e-23,7.627869899916454e-44,21.663500000000003,21.663500000000003,6.403808310124734e-23,4.222908387791258e-25,4.222908387791258e-25,21.663500000000003,21.663500000000003,6.403808310124734e-23,4.222908387791258e-25,4.222908387791258e-25,-3.842314068777133e-25,-3.842314068777133e-25
1762666247.692319,0.0,0.0,1.075,0.0,0.0,1.5,3.842314068777133e-25,0.0,0.0,-1.8296595171783183e-24,1.5721191315462923e-49,0.0,-6.602900352495067e-47,-7.68456997214968e-22,-1.5255739799832908e-42,0.0,0.0,0.0,1.8296595171783182e-23,5.3852536103456124e-40,43.327000000000005,1.8296595171783182e-23,1.6647594165790687e-23,43.327000000000005,-1.9211570343885665e-25,3.8422849860748405e-23,7.627869899916454e-44,21.663500000000003,21.663500000000003,6.403808310124734e-23,4.222908387791258e-25,4.222908387791258e-25,21.663500000000003,21.663500000000003,6.403808310124734e-23,4.222908387791258e-25,4.222908387791258e-25,-3.842314068777133e-25,-3.842314068777133e-25
1762666247.6941237,0.0,0.0,1.075,0.0,0.0,1.5,3.842314068777133e-25,0.0,0.0,-1.8296595171783183e-24,1.5721191315462923e-49,0.0,-6.602900352495067e-47,-7.68456997214968e-22,-1.5255739799832908e-42,0.0,0.0,0.0,1.8296595171783182e-23,5.3852536103456124e-40,43.327000000000005,1.8296595171783182e-23,1.6647594165790687e-23,43.327000000000005,-1.9211570343885665e-25,3.8422849860748405e-23,7.627869899916454e-44,21.663500000000003,21.663500000000003,6.403808310124734e-23,4.222908387791258e-25,4.222908387791258e-25,21.663500000000003,21.663500000000003,6.403808310124734e-23,4.222908387791258e-25,4.222908387791258e-25,-3.842314068777133e-25,-3.842314068777133e-25
1762666247.695646,0.0,0.0,1.075,0.0,0.0,1.5,3.842314068777133e-25,0.0,0.0,-1.8296595171783183e-24,1.5721191315462923e-49,0.0,-6.602900352495067e-47,-7.68456997214968e-22,-1.5255739799832908e-42,0.0,0.0,0.0,1.8296595171783182e-23,5.3852536103456124e-40,43.327000000000005,1.8296595171783182e-23,1.6647594165790687e-23,43.327000000000005,-1.9211570343885665e-25,3.8422849860748405e-23,7.627869899916454e-44,21.663500000000003,21.663500000000003,6.403808310124734e-23,4.222908387791258e-25,4.222908387791258e-25,21.663500000000003,21.663500000000003,6.403808310124734e-23,4.222908387791258e-25,4.222908387791258e-25,-3.842314068777133e-25,-3.842314068777133e-25
1762666247.6970277,0.0,0.0,1.075,0.0,0.0,1.5,3.842314068777133e-25,0.0,0.0,-1.8296595171783183e-24,1.5721191315462923e-49,0.0,-6.602900352495067e-47,-7.68456997214968e-22,-1.5255739799832908e-42,0.0,0.0,0.0,1.8296595171783182e-23,5.3852536103456124e-40,43.327000000000005,1.8296595171783182e-23,1.6647594165790687e-23,43.327000000000005,-1.9211570343885665e-25,3.8422849860748405e-23,7.627869899916454e-44,21.663500000000003,21.663500000000003,6.403808310124734e-23,4.222908387791258e-25,4.222908387791258e-25,21.663500000000003,21.663500000000003,6.403808310124734e-23,4.222908387791258e-25,4.222908387791258e-25,-3.842314068777133e-25,-3.842314068777133e-25
1762666247.6983323,0.0,0.0,1.075,0.0,0.0,1.5,3.842314068777133e-25,0.0,0.0,-1.8296595171783183e-24,1.5721191315462923e-49,0.0,-6.602900352495067e-47,-7.68456997214968e-22,-1.5255739799832908e-42,0.0,0.0,0.0,1.8296595171783182e-23,5.3852536103456124e-40,43.327000000000005,1.8296595171783182e-23,1.6647594165790687e-23,43.327000000000005,-1.9211570343885665e-25,3.8422849860748405e-23,7.627869899916454e-44,21.663500000000003,21.663500000000003,6.403808310124734e-23,4.222908387791258e-25,4.222908387791258e-25,21.663500000000003,21.663500000000003,6.403808310124734e-23,4.222908387791258e-25,4.222908387791258e-25,-3.842314068777133e-25,-3.842314068777133e-25
1762666247.6997902,0.0,0.0,1.075,0.0,0.0,1.5,3.842314068777133e-25,0.0,0.0,-1.8296595171783183e-24,1.5721191315462923e-49,0.0,-6.602900352495067e-47,-7.68456997214968e-22,-1.5255739799832908e-42,0.0,0.0,0.0,1.8296595171783182e-23,5.3852536103456124e-40,43.327000000000005,1.8296595171783182e-23,1.6647594165790687e-23,43.327000000000005,-1.9211570343885665e-25,3.8422849860748405e-23,7.627869899916454e-44,21.663500000000003,21.663500000000003,6.403808310124734e-23,4.222908387791258e-25,4.222908387791258e-25,21.663500000000003,21.663500000000003,6.403808310124734e-23,4.222908387791258e-25,4.222908387791258e-25,-3.842314068777133e-25,-3.842314068777133e-25
1762666247.7013261,0.0,0.0,1.075,0.0,0.0,1.5,3.842314068777133e-25,0.0,0.0,-1.8296595171783183e-24,1.5721191315462923e-49,0.0,-6.602900352495067e-47,-7.68456997214968e-22,-1.5255739799832908e-42,0.0,0.0,0.0,1.8296595171783182e-23,5.3852536103456124e-40,43.327000000000005,1.8296595171783182e-23,1.6647594165790687e-23,43.327000000000005,-1.9211570343885665e-25,3.8422849860748405e-23,7.627869899916454e-44,21.663500000000003,21.663500000000003,6.403808310124734e-23,4.222908387791258e-25,4.222908387791258e-25,21.663500000000003,21.663500000000003,6.403808310124734e-23,4.222908387791258e-25,4.222908387791258e-25,-3.842314068777133e-25,-3.842314068777133e-25
1762666247.702912,0.0,0.0,1.075,0.0,0.0,1.5,1.53688649343675e-24,0.0,0.0,-3.659224664782843e-24,-3.210363063405629e-30,0.0,1.3483524866304946e-27,-1.5368743592089429e-21,-3.008258232624706e-42,0.0,0.0,0.0,1.8296595171783182e-23,5.3852536103456124e-40,43.327000000000005,1.8296595171783182e-23,1.6647594165790687e-23,43.327000000000005,-1.9211570343885665e-25,3.8422849860748405e-23,7.627869899916454e-44,21.663500000000003,21.663500000000003,6.403808310124734e-23,4.222908387791258e-25,4.222908387791258e-25,21.663500000000003,21.663500000000003,6.403808310124734e-23,4.222908387791258e-25,4.222908387791258e-25,-3.842314068777133e-25,-3.842314068777133e-25
1762666247.7043607,0.0,0.0,1.075,0.0,0.0,1.5,1.53688649343675e-24,0.0,0.0,-3.659224664782843e-24,-3.210363063405629e-30,0.0,1.3483524866304946e-27,-1.5368743592089429e-21,-3.008258232624706e-42,0.0,0.0,0.0,3.6592246647828435e-23,3.2103630633873283e-29,43.327000000000005,3.6592246647828435e-23,6.658871320476471e-23,43.327000000000005,-7.685106643427065e-25,7.684371796044714e-23,1.5041282874130076e-43,21.663500000000003,21.663500000000003,1.280728632674119e-22,8.445598967809549e-25,8.445598967809549e-25,21.663500000000003,21.663500000000003,1.280728632674119e-22,8.445598967809549e-25,8.445598967809549e-25,-1.5368872343980589e-24,-1.5368872343980589e-24
1762666247.7056088,0.0,0.0,1.075,0.0,0.0,1.5,1.53688649343675e-24,0.0,0.0,-3.659224664782843e-24,-3.210363063405629e-30,0.0,1.3483524866304946e-27,-1.5368743592089429e-21,-3.008258232624706e-42,0.0,0.0,0.0,3.6592246647828435e-23,3.2103630633873283e-29,43.327000000000005,3.6592246647828435e-23,6.658871320476471e-23,43.327000000000005,-7.685106643427065e-25,7.684371796044714e-23,1.5041282874130076e-43,21.663500000000003,21.663500000000003,1.280728632674119e-22,8.445598967809549e-25,8.445598967809549e-25,21.663500000000003,21.663500000000003,1.280728632674119e-22,8.445598967809549e-25,8.445598967809549e-25,-1.5368872343980589e-24,-1.5368872343980589e-24
1762666247.7070541,0.0,0.0,1.075,0.0,0.0,1.5,1.53688649343675e-24,0.0,0.0,-3.659224664782843e-24,-3.210363063405629e-30,0.0,1.3483524866304946e-27,-1.5368743592089429e-21,-3.008258232624706e-42,0.0,0.0,0.0,3.6592246647828435e-23,3.2103630633873283e-29,43.327000000000005,3.6592246647828435e-23,6.658871320476471e-23,43.327000000000005,-7.685106643427065e-25,7.684371796044714e-23,1.5041282874130076e-43,21.663500000000003,21.663500000000003,1.280728632674119e-22,8.445598967809549e-25,8.445598967809549e-25,21.663500000000003,21.663500000000003,1.280728632674119e-22,8.445598967809549e-25,8.445598967809549e-25,-1.5368872343980589e-24,-1.5368872343980589e-24
1762666247.7090526,0.0,0.0,1.075,0.0,0.0,1.5,1.53688649343675e-24,0.0,0.0,-3.659224664782843e-24,-3.210363063405629e-30,0.0,1.3483524866304946e-27,-1.5368743592089429e-21,-3.008258232624706e-42,0.0,0.0,0.0,3.6592246647828435e-23,3.2103630633873283e-29,43.327000000000005,3.6592246647828435e-23,6.658871320476471e-23,43.327000000000005,-7.685106643427065e-25,7.684371796044714e-23,1.5041282874130076e-43,21.663500000000003,21.663500000000003,1.280728632674119e-22,8.445598967809549e-25,8.445598967809549e-25,21.663500000000003,21.663500000000003,1.280728632674119e-22,8.445598967809549e-25,8.445598967809549e-25,-1.5368872343980589e-24,-1.5368872343980589e-24
1762666247.7107668,0.0,0.0,1.075,0.0,0.0,1.5,1.53688649343675e-24,0.0,0.0,-3.659224664782843e-24,-3.210363063405629e-30,0.0,1.3483524866304946e-27,-1.5368743592089429e-21,-3.008258232624706e-42,0.0,0.0,0.0,3.6592246647828435e-23,3.2103630633873283e-29,43.327000000000005,3.6592246647828435e-23,6.658871320476471e-23,43.327000000000005,-7.685106643427065e-25,7.684371796044714e-23,1.5041282874130076e-43,21.663500000000003,21.663500000000003,1.280728632674119e-22,8.445598967809549e-25,8.445598967809549e-25,21.663500000000003,21.663500000000003,1.280728632674119e-22,8.445598967809549e-25,8.445598967809549e-25,-1.5368872343980589e-24,-1.5368872343980589e-24
1762666247.7121544,0.0,0.0,1.075,0.0,0.0,1.5,1.53688649343675e-24,0.0,0.0,-3.659224664782843e-24,-3.210363063405629e-30,0.0,1.3483524866304946e-27,-1.5368743592089429e-21,-3.008258232624706e-42,0.0,0.0,0.0,3.6592246647828435e-23,3.2103630633873283e-29,43.327000000000005,3.6592246647828435e-23,6.658871320476471e-23,43.327000000000005,-7.685106643427065e-25,7.684371796044714e-23,1.5041282874130076e-43,21.663500000000003,21.663500000000003,1.280728632674119e-22,8.445598967809549e-25,8.445598967809549e-25,21.663500000000003,21.663500000000003,1.280728632674119e-22,8.445598967809549e-25,8.445598967809549e-25,-1.5368872343980589e-24,-1.5368872343980589e-24
1762666247.7134733,0.0,0.0,1.075,0.0,0.0,1.5,1.53688649343675e-24,0.0,0.0,-3.659224664782843e-24,-3.210363063405629e-30,0.0,1.3483524866304946e-27,-1.5368743592089429e-21,-3.008258232624706e-42,0.0,0.0,0.0,3.6592246647828435e-23,3.2103630633873283e-29,43.327000000000005,3.6592246647828435e-23,6.658871320476471e-23,43.327000000000005,-7.685106643427065e-25,7.684371796044714e-23,1.5041282874130076e-43,21.663500000000003,21.663500000000003,1.280728632674119e-22,8.445598967809549e-25,8.445598967809549e-25,21.663500000000003,21.663500000000003,1.280728632674119e-22,8.445598967809549e-25,8.445598967809549e-25,-1.5368872343980589e-24,-1.5368872343980589e-24
1762666247.7147746,0.0,0.0,1.075,0.0,0.0,1.5,1.53688649343675e-24,0.0,0.0,-3.659224664782843e-24,-3.210363063405629e-30,0.0,1.3483524866304946e-27,-1.5368743592089429e-21,-3.008258232624706e-42,0.0,0.0,0.0,3.6592246647828435e-23,3.2103630633873283e-29,43.327000000000005,3.6592246647828435e-23,6.658871320476471e-23,43.327000000000005,-7.685106643427065e-25,7.684371796044714e-23,1.5041282874130076e-43,21.663500000000003,21.663500000000003,1.280728632674119e-22,8.445598967809549e-25,8.445598967809549e-25,21.663500000000003,21.663500000000003,1.280728632674119e-22,8.445598967809549e-25,8.445598967809549e-25,-1.5368872343980589e-24,-1.5368872343980589e-24
1762666247.716257,0.0,0.0,1.075,0.0,0.0,1.5,1.53688649343675e-24,0.0,0.0,-3.659224664782843e-24,-3.210363063405629e-30,0.0,1.3483524866304946e-27,-1.5368743592089429e-21,-3.008258232624706e-42,0.0,0.0,0.0,3.6592246647828435e-23,3.2103630633873283e-29,43.327000000000005,3.6592246647828435e-23,6.658871320476471e-23,43.327000000000005,-7.685106643427065e-25,7.684371796044714e-23,1.5041282874130076e-43,21.663500000000003,21.663500000000003,1.280728632674119e-22,8.445598967809549e-25,8.445598967809549e-25,21.663500000000003,21.663500000000003,1.280728632674119e-22,8.445598967809549e-25,8.445598967809549e-25,-1.5368872343980589e-24,-1.5368872343980589e-24
1762666247.7176964,0.0,0.0,1.075,0.0,0.0,1.5,1.53688649343675e-24,0.0,0.0,-3.659224664782843e-24,-3.210363063405629e-30,0.0,1.3483524866304946e-27,-1.5368743592089429e-21,-3.008258232624706e-42,0.0,0.0,0.0,3.6592246647828435e-23,3.2103630633873283e-29,43.327000000000005,3.6592246647828435e-23,6.658871320476471e-23,43.327000000000005,-7.685106643427065e-25,7.684371796044714e-23,1.5041282874130076e-43,21.663500000000003,21.663500000000003,1.280728632674119e-22,8.445598967809549e-25,8.445598967809549e-25,21.663500000000003,21.663500000000003,1.280728632674119e-22,8.445598967809549e-25,8.445598967809549e-25,-1.5368872343980589e-24,-1.5368872343980589e-24
1762666247.719177,0.0,0.0,1.075,0.0,0.0,1.5,1.53688649343675e-24,0.0,0.0,-3.659224664782843e-24,-3.210363063405629e-30,0.0,1.3483524866304946e-27,-1.5368743592089429e-21,-3.008258232624706e-42,0.0,0.0,0.0,3.6592246647828435e-23,3.2103630633873283e-29,43.327000000000005,3.6592246647828435e-23,6.658871320476471e-23,43.327000000000005,-7.685106643427065e-25,7.684371796044714e-23,1.5041282874130076e-43,21.663500000000003,21.663500000000003,1.280728632674119e-22,8.445598967809549e-25,8.445598967809549e-25,21.663500000000003,21.663500000000003,1.280728632674119e-22,8.445598967809549e-25,8.445598967809549e-25,-1.5368872343980589e-24,-1.5368872343980589e-24
1762666247.7205372,0.0,0.0,1.075,0.0,0.0,1.5,1.53688649343675e-24,0.0,0.0,-3.659224664782843e-24,-3.210363063405629e-30,0.0,1.3483524866304946e-27,-1.5368743592089429e-21,-3.008258232624706e-42,0.0,0.0,0.0,3.6592246647828435e-23,3.2103630633873283e-29,43.327000000000005,3.6592246647828435e-23,6.658871320476471e-23,43.327000000000005,-7.685106643427065e-25,7.684371796044714e-23,1.5041282874130076e-43,21.663500000000003,21.663500000000003,1.280728632674119e-22,8.445598967809549e-25,8.445598967809549e-25,21.663500000000003,21.663500000000003,1.280728632674119e-22,8.445598967809549e-25,8.445598967809549e-25,-1.5368872343980589e-24,-1.5368872343980589e-24
1762666247.721808,0.0,0.0,1.075,0.0,0.0,1.5,1.53688649343675e-24,0.0,0.0,-3.659224664782843e-24,-3.210363063405629e-30,0.0,1.3483524866304946e-27,-1.5368743592089429e-21,-3.008258232624706e-42,0.0,0.0,0.0,3.6592246647828435e-23,3.2103630633873283e-29,43.327000000000005,3.6592246647828435e-23,6.658871320476471e-23,43.327000000000005,-7.685106643427065e-25,7.684371796044714e-23,1.5041282874130076e-43,21.663500000000003,21.663500000000003,1.280728632674119e-22,8.445598967809549e-25,8.445598967809549e-25,21.663500000000003,21.663500000000003,1.280728632674119e-22,8.445598967809549e-25,8.445598967809549e-25,-1.5368872343980589e-24,-1.5368872343980589e-24
1762666247.7231517,0.0,0.0,1.075,0.0,0.0,1.5,1.53688649343675e-24,0.0,0.0,-3.659224664782843e-24,-3.210363063405629e-30,0.0,1.3483524866304946e-27,-1.5368743592089429e-21,-3.008258232624706e-42,0.0,0.0,0.0,3.6592246647828435e-23,3.2103630633873283e-29,43.327000000000005,3.6592246647828435e-23,6.658871320476471e-23,43.327000000000005,-7.685106643427065e-25,7.684371796044714e-23,1.5041282874130076e-43,21.663500000000003,21.663500000000003,1.280728632674119e-22,8.445598967809549e-25,8.445598967809549e-25,21.663500000000003,21.663500000000003,1.280728632674119e-22,8.445598967809549e-25,8.445598967809549e-25,-1.5368872343980589e-24,-1.5368872343980589e-24
1762666247.724645,0.0,0.0,1.075,0.0,0.0,1.5,1.53688649343675e-24,0.0,0.0,-3.659224664782843e-24,-3.210363063405629e-30,0.0,1.3483524866304946e-27,-1.5368743592089429e-21,-3.008258232624706e-42,0.0,0.0,0.0,3.6592246647828435e-23,3.2103630633873283e-29,43.327000000000005,3.6592246647828435e-23,6.658871320476471e-23,43.327000000000005,-7.685106643427065e-25,7.684371796044714e-23,1.5041282874130076e-43,21.663500000000003,21.663500000000003,1.280728632674119e-22,8.445598967809549e-25,8.445598967809549e-25,21.663500000000003,21.663500000000003,1.280728632674119e-22,8.445598967809549e-25,8.445598967809549e-25,-1.5368872343980589e-24,-1.5368872343980589e-24
1762666247.726272,0.0,0.0,1.075,0.0,0.0,1.5,1.53688649343675e-24,0.0,0.0,-3.659224664782843e-24,-3.210363063405629e-30,0.0,1.3483524866304946e-27,-1.5368743592089429e-21,-3.008258232624706e-42,0.0,0.0,0.0,3.6592246647828435e-23,3.2103630633873283e-29,43.327000000000005,3.6592246647828435e-23,6.658871320476471e-23,43.327000000000005,-7.685106643427065e-25,7.684371796044714e-23,1.5041282874130076e-43,21.663500000000003,21.663500000000003,1.280728632674119e-22,8.445598967809549e-25,8.445598967809549e-25,21.663500000000003,21.663500000000003,1.280728632674119e-22,8.445598967809549e-25,8.445598967809549e-25,-1.5368872343980589e-24,-1.5368872343980589e-24
1762666247.727742,0.0,0.0,1.075,0.0,0.0,1.5,1.53688649343675e-24,0.0,0.0,-3.659224664782843e-24,-3.210363063405629e-30,0.0,1.3483524866304946e-27,-1.5368743592089429e-21,-3.008258232624706e-42,0.0,0.0,0.0,3.6592246647828435e-23,3.2103630633873283e-29,43.327000000000005,3.6592246647828435e-23,6.658871320476471e-23,43.327000000000005,-7.685106643427065e-25,7.684371796044714e-23,1.5041282874130076e-43,21.663500000000003,21.663500000000003,1.280728632674119e-22,8.445598967809549e-25,8.445598967809549e-25,21.663500000000003,21.663500000000003,1.280728632674119e-22,8.445598967809549e-25,8.445598967809549e-25,-1.5368872343980589e-24,-1.5368872343980589e-24
1762666247.7291403,0.0,0.0,1.075,0.0,0.0,1.5,1.53688649343675e-24,0.0,0.0,-3.659224664782843e-24,-3.210363063405629e-30,0.0,1.3483524866304946e-27,-1.5368743592089429e-21,-3.008258232624706e-42,0.0,0.0,0.0,3.6592246647828435e-23,3.2103630633873283e-29,43.327000000000005,3.6592246647828435e-23,6.658871320476471e-23,43.327000000000005,-7.685106643427065e-25,7.684371796044714e-23,1.5041282874130076e-43,21.663500000000003,21.663500000000003,1.280728632674119e-22,8.445598967809549e-25,8.445598967809549e-25,21.663500000000003,21.663500000000003,1.280728632674119e-22,8.445598967809549e-25,8.445598967809549e-25,-1.5368872343980589e-24,-1.5368872343980589e-24
1762666247.7305055,0.0,0.0,1.075,0.0,0.0,1.5,1.53688649343675e-24,0.0,0.0,-3.659224664782843e-24,-3.210363063405629e-30,0.0,1.3483524866304946e-27,-1.5368743592089429e-21,-3.008258232624706e-42,0.0,0.0,0.0,3.6592246647828435e-23,3.2103630633873283e-29,43.327000000000005,3.6592246647828435e-23,6.658871320476471e-23,43.327000000000005,-7.685106643427065e-25,7.684371796044714e-23,1.5041282874130076e-43,21.663500000000003,21.663500000000003,1.280728632674119e-22,8.445598967809549e-25,8.445598967809549e-25,21.663500000000003,21.663500000000003,1.280728632674119e-22,8.445598967809549e-25,8.445598967809549e-25,-1.5368872343980589e-24,-1.5368872343980589e-24
1762666247.731892,0.0,0.0,1.075,0.0,0.0,1.5,1.53688649343675e-24,0.0,0.0,-3.659224664782843e-24,-3.210363063405629e-30,0.0,1.3483524866304946e-27,-1.5368743592089429e-21,-3.008258232624706e-42,0.0,0.0,0.0,3.6592246647828435e-23,3.2103630633873283e-29,43.327000000000005,3.6592246647828435e-23,6.658871320476471e-23,43.327000000000005,-7.685106643427065e-25,7.684371796044714e-23,1.5041282874130076e-43,21.663500000000003,21.663500000000003,1.280728632674119e-22,8.445598967809549e-25,8.445598967809549e-25,21.663500000000003,21.663500000000003,1.280728632674119e-22,8.445598967809549e-25,8.445598967809549e-25,-1.5368872343980589e-24,-1.5368872343980589e-24
1762666247.7334325,0.0,0.0,1.075,0.0,0.0,1.5,1.53688649343675e-24,0.0,0.0,-3.659224664782843e-24,-3.210363063405629e-30,0.0,1.3483524866304946e-27,-1.5368743592089429e-21,-3.008258232624706e-42,0.0,0.0,0.0,3.6592246647828435e-23,3.2103630633873283e-29,43.327000000000005,3.6592246647828435e-23,6.658871320476471e-23,43.327000000000005,-7.685106643427065e-25,7.684371796044714e-23,1.5041282874130076e-43,21.663500000000003,21.663500000000003,1.280728632674119e-22,8.445598967809549e-25,8.445598967809549e-25,21.663500000000003,21.663500000000003,1.280728632674119e-22,8.445598967809549e-25,8.445598967809549e-25,-1.5368872343980589e-24,-1.5368872343980589e-24
1762666247.7349188,0.0,0.0,1.075,0.0,0.0,1.5,1.53688649343675e-24,0.0,0.0,-3.659224664782843e-24,-3.210363063405629e-30,0.0,1.3483524866304946e-27,-1.5368743592089429e-21,-3.008258232624706e-42,0.0,0.0,0.0,3.6592246647828435e-23,3.2103630633873283e-29,43.327000000000005,3.6592246647828435e-23,6.658871320476471e-23,43.327000000000005,-7.685106643427065e-25,7.684371796044714e-23,1.5041282874130076e-43,21.663500000000003,21.663500000000003,1.280728632674119e-22,8.445598967809549e-25,8.445598967809549e-25,21.663500000000003,21.663500000000003,1.280728632674119e-22,8.445598967809549e-25,8.445598967809549e-25,-1.5368872343980589e-24,-1.5368872343980589e-24
1762666247.7363322,0.0,0.0,1.075,0.0,0.0,1.5,1.53688649343675e-24,0.0,0.0,-3.659224664782843e-24,-3.210363063405629e-30,0.0,1.3483524866304946e-27,-1.5368743592089429e-21,-3.008258232624706e-42,0.0,0.0,0.0,3.6592246647828435e-23,3.2103630633873283e-29,43.327000000000005,3.6592246647828435e-23,6.658871320476471e-23,43.327000000000005,-7.685106643427065e-25,7.684371796044714e-23,1.5041282874130076e-43,21.663500000000003,21.663500000000003,1.280728632674119e-22,8.445598967809549e-25,8.445598967809549e-25,21.663500000000003,21.663500000000003,1.280728632674119e-22,8.445598967809549e-25,8.445598967809549e-25,-1.5368872343980589e-24,-1.5368872343980589e-24
1762666247.7376075,0.0,0.0,1.075,0.0,0.0,1.5,1.53688649343675e-24,0.0,0.0,-3.659224664782843e-24,-3.210363063405629e-30,0.0,1.3483524866304946e-27,-1.5368743592089429e-21,-3.008258232624706e-42,0.0,0.0,0.0,3.6592246647828435e-23,3.2103630633873283e-29,43.327000000000005,3.6592246647828435e-23,6.658871320476471e-23,43.327000000000005,-7.685106643427065e-25,7.684371796044714e-23,1.5041282874130076e-43,21.663500000000003,21.663500000000003,1.280728632674119e-22,8.445598967809549e-25,8.445598967809549e-25,21.663500000000003,21.663500000000003,1.280728632674119e-22,8.445598967809549e-25,8.445598967809549e-25,-1.5368872343980589e-24,-1.5368872343980589e-24
1762666247.738951,0.0,0.0,1.075,0.0,0.0,1.5,1.53688649343675e-24,0.0,0.0,-3.659224664782843e-24,-3.210363063405629e-30,0.0,1.3483524866304946e-27,-1.5368743592089429e-21,-3.008258232624706e-42,0.0,0.0,0.0,3.6592246647828435e-23,3.2103630633873283e-29,43.327000000000005,3.6592246647828435e-23,6.658871320476471e-23,43.327000000000005,-7.685106643427065e-25,7.684371796044714e-23,1.5041282874130076e-43,21.663500000000003,21.663500000000003,1.280728632674119e-22,8.445598967809549e-25,8.445598967809549e-25,21.663500000000003,21.663500000000003,1.280728632674119e-22,8.445598967809549e-25,8.445598967809549e-25,-1.5368872343980589e-24,-1.5368872343980589e-24
1762666247.7403092,0.0,0.0,1.075,0.0,0.0,1.5,1.53688649343675e-24,0.0,0.0,-3.659224664782843e-24,-3.210363063405629e-30,0.0,1.3483524866304946e-27,-1.5368743592089429e-21,-3.008258232624706e-42,0.0,0.0,0.0,3.6592246647828435e-23,3.2103630633873283e-29,43.327000000000005,3.6592246647828435e-23,6.658871320476471e-23,43.327000000000005,-7.685106643427065e-25,7.684371796044714e-23,1.5041282874130076e-43,21.663500000000003,21.663500000000003,1.280728632674119e-22,8.445598967809549e-25,8.445598967809549e-25,21.663500000000003,21.663500000000003,1.280728632674119e-22,8.445598967809549e-25,8.445598967809549e-25,-1.5368872343980589e-24,-1.5368872343980589e-24
1762666247.7418637,0.0,0.0,1.075,0.0,0.0,1.5,1.53688649343675e-24,0.0,0.0,-3.659224664782843e-24,-3.210363063405629e-30,0.0,1.3483524866304946e-27,-1.5368743592089429e-21,-3.008258232624706e-42,0.0,0.0,0.0,3.6592246647828435e-23,3.2103630633873283e-29,43.327000000000005,3.6592246647828435e-23,6.658871320476471e-23,43.327000000000005,-7.685106643427065e-25,7.684371796044714e-23,1.5041282874130076e-43,21.663500000000003,21.663500000000003,1.280728632674119e-22,8.445598967809549e-25,8.445598967809549e-25,21.663500000000003,21.663500000000003,1.280728632674119e-22,8.445598967809549e-25,8.445598967809549e-25,-1.5368872343980589e-24,-1.5368872343980589e-24
1762666247.7433004,0.0,0.0,1.075,0.0,0.0,1.5,1.53688649343675e-24,0.0,0.0,-3.659224664782843e-24,-3.210363063405629e-30,0.0,1.3483524866304946e-27,-1.5368743592089429e-21,-3.008258232624706e-42,0.0,0.0,0.0,3.6592246647828435e-23,3.2103630633873283e-29,43.327000000000005,3.6592246647828435e-23,6.658871320476471e-23,43.327000000000005,-7.685106643427065e-25,7.684371796044714e-23,1.5041282874130076e-43,21.663500000000003,21.663500000000003,1.280728632674119e-22,8.445598967809549e-25,8.445598967809549e-25,21.663500000000003,21.663500000000003,1.280728632674119e-22,8.445598967809549e-25,8.445598967809549e-25,-1.5368872343980589e-24,-1.5368872343980589e-24
1762666247.7447112,0.0,0.0,1.075,0.0,0.0,1.5,1.53688649343675e-24,0.0,0.0,-3.659224664782843e-24,-3.210363063405629e-30,0.0,1.3483524866304946e-27,-1.5368743592089429e-21,-3.008258232624706e-42,0.0,0.0,0.0,3.6592246647828435e-23,3.2103630633873283e-29,43.327000000000005,3.6592246647828435e-23,6.658871320476471e-23,43.327000000000005,-7.685106643427065e-25,7.684371796044714e-23,1.5041282874130076e-43,21.663500000000003,21.663500000000003,1.280728632674119e-22,8.445598967809549e-25,8.445598967809549e-25,21.663500000000003,21.663500000000003,1.280728632674119e-22,8.445598967809549e-25,8.445598967809549e-25,-1.5368872343980589e-24,-1.5368872343980589e-24
1762666247.7460184,0.0,0.0,1.075,0.0,0.0,1.5,1.53688649343675e-24,0.0,0.0,-3.659224664782843e-24,-3.210363063405629e-30,0.0,1.3483524866304946e-27,-1.5368743592089429e-21,-3.008258232624706e-42,0.0,0.0,0.0,3.6592246647828435e-23,3.2103630633873283e-29,43.327000000000005,3.6592246647828435e-23,6.658871320476471e-23,43.327000000000005,-7.685106643427065e-25,7.684371796044714e-23,1.5041282874130076e-43,21.663500000000003,21.663500000000003,1.280728632674119e-22,8.445598967809549e-25,8.445598967809549e-25,21.663500000000003,21.663500000000003,1.280728632674119e-22,8.445598967809549e-25,8.445598967809549e-25,-1.5368872343980589e-24,-1.5368872343980589e-24
1762666247.747301,0.0,0.0,1.075,0.0,0.0,1.5,1.53688649343675e-24,0.0,0.0,-3.659224664782843e-24,-3.210363063405629e-30,0.0,1.3483524866304946e-27,-1.5368743592089429e-21,-3.008258232624706e-42,0.0,0.0,0.0,3.6592246647828435e-23,3.2103630633873283e-29,43.327000000000005,3.6592246647828435e-23,6.658871320476471e-23,43.327000000000005,-7.685106643427065e-25,7.684371796044714e-23,1.5041282874130076e-43,21.663500000000003,21.663500000000003,1.280728632674119e-22,8.445598967809549e-25,8.445598967809549e-25,21.663500000000003,21.663500000000003,1.280728632674119e-22,8.445598967809549e-25,8.445598967809549e-25,-1.5368872343980589e-24,-1.5368872343980589e-24
1762666247.748672,0.0,0.0,1.075,0.0,0.0,1.5,1.53688649343675e-24,0.0,0.0,-3.659224664782843e-24,-3.210363063405629e-30,0.0,1.3483524866304946e-27,-1.5368743592089429e-21,-3.008258232624706e-42,0.0,0.0,0.0,3.6592246647828435e-23,3.2103630633873283e-29,43.327000000000005,3.6592246647828435e-23,6.658871320476471e-23,43.327000000000005,-7.685106643427065e-25,7.684371796044714e-23,1.5041282874130076e-43,21.663500000000003,21.663500000000003,1.280728632674119e-22,8.445598967809549e-25,8.445598967809549e-25,21.663500000000003,21.663500000000003,1.280728632674119e-22,8.445598967809549e-25,8.445598967809549e-25,-1.5368872343980589e-24,-1.5368872343980589e-24
1762666247.7501817,0.0,0.0,1.075,0.0,0.0,1.5,1.53688649343675e-24,0.0,0.0,-3.659224664782843e-24,-3.210363063405629e-30,0.0,1.3483524866304946e-27,-1.5368743592089429e-21,-3.008258232624706e-42,0.0,0.0,0.0,3.6592246647828435e-23,3.2103630633873283e-29,43.327000000000005,3.6592246647828435e-23,6.658871320476471e-23,43.327000000000005,-7.685106643427065e-25,7.684371796044714e-23,1.5041282874130076e-43,21.663500000000003,21.663500000000003,1.280728632674119e-22,8.445598967809549e-25,8.445598967809549e-25,21.663500000000003,21.663500000000003,1.280728632674119e-22,8.445598967809549e-25,8.445598967809549e-25,-1.5368872343980589e-24,-1.5368872343980589e-24
1762666247.7515452,0.0,0.0,1.075,0.0,0.0,1.5,1.53688649343675e-24,0.0,0.0,-3.659224664782843e-24,-3.210363063405629e-30,0.0,1.3483524866304946e-27,-1.5368743592089429e-21,-3.008258232624706e-42,0.0,0.0,0.0,3.6592246647828435e-23,3.2103630633873283e-29,43.327000000000005,3.6592246647828435e-23,6.658871320476471e-23,43.327000000000005,-7.685106643427065e-25,7.684371796044714e-23,1.5041282874130076e-43,21.663500000000003,21.663500000000003,1.280728632674119e-22,8.445598967809549e-25,8.445598967809549e-25,21.663500000000003,21.663500000000003,1.280728632674119e-22,8.445598967809549e-25,8.445598967809549e-25,-1.5368872343980589e-24,-1.5368872343980589e-24
1762666247.7529411,0.0,0.0,1.075,0.0,0.0,1.5,1.53688649343675e-24,0.0,0.0,-3.659224664782843e-24,-3.210363063405629e-30,0.0,1.3483524866304946e-27,-1.5368743592089429e-21,-3.008258232624706e-42,0.0,0.0,0.0,3.6592246647828435e-23,3.2103630633873283e-29,43.327000000000005,3.6592246647828435e-23,6.658871320476471e-23,43.327000000000005,-7.685106643427065e-25,7.684371796044714e-23,1.5041282874130076e-43,21.663500000000003,21.663500000000003,1.280728632674119e-22,8.445598967809549e-25,8.445598967809549e-25,21.663500000000003,21.663500000000003,1.280728632674119e-22,8.445598967809549e-25,8.445598967809549e-25,-1.5368872343980589e-24,-1.5368872343980589e-24
1762666247.7542558,0.0,0.0,1.075,0.0,0.0,1.5,1.53688649343675e-24,0.0,0.0,-3.659224664782843e-24,-3.210363063405629e-30,0.0,1.3483524866304946e-27,-1.5368743592089429e-21,-3.008258232624706e-42,0.0,0.0,0.0,3.6592246647828435e-23,3.2103630633873283e-29,43.327000000000005,3.6592246647828435e-23,6.658871320476471e-23,43.327000000000005,-7.685106643427065e-25,7.684371796044714e-23,1.5041282874130076e-43,21.663500000000003,21.663500000000003,1.280728632674119e-22,8.445598967809549e-25,8.445598967809549e-25,21.663500000000003,21.663500000000003,1.280728632674119e-22,8.445598967809549e-25,8.445598967809549e-25,-1.5368872343980589e-24,-1.5368872343980589e-24
1762666247.7555192,0.0,0.0,1.075,0.0,0.0,1.5,1.53688649343675e-24,0.0,0.0,-3.659224664782843e-24,-3.210363063405629e-30,0.0,1.3483524866304946e-27,-1.5368743592089429e-21,-3.008258232624706e-42,0.0,0.0,0.0,3.6592246647828435e-23,3.2103630633873283e-29,43.327000000000005,3.6592246647828435e-23,6.658871320476471e-23,43.327000000000005,-7.685106643427065e-25,7.684371796044714e-23,1.5041282874130076e-43,21.663500000000003,21.663500000000003,1.280728632674119e-22,8.445598967809549e-25,8.445598967809549e-25,21.663500000000003,21.663500000000003,1.280728632674119e-22,8.445598967809549e-25,8.445598967809549e-25,-1.5368872343980589e-24,-1.5368872343980589e-24
1762666247.7568614,0.0,0.0,1.075,0.0,0.0,1.5,1.53688649343675e-24,0.0,0.0,-3.659224664782843e-24,-3.210363063405629e-30,0.0,1.3483524866304946e-27,-1.5368743592089429e-21,-3.008258232624706e-42,0.0,0.0,0.0,3.6592246647828435e-23,3.2103630633873283e-29,43.327000000000005,3.6592246647828435e-23,6.658871320476471e-23,43.327000000000005,-7.685106643427065e-25,7.684371796044714e-23,1.5041282874130076e-43,21.663500000000003,21.663500000000003,1.280728632674119e-22,8.445598967809549e-25,8.445598967809549e-25,21.663500000000003,21.663500000000003,1.280728632674119e-22,8.445598967809549e-25,8.445598967809549e-25,-1.5368872343980589e-24,-1.5368872343980589e-24
1762666247.7582211,0.0,0.0,1.075,0.0,0.0,1.5,1.53688649343675e-24,0.0,0.0,-3.659224664782843e-24,-3.210363063405629e-30,0.0,1.3483524866304946e-27,-1.5368743592089429e-21,-3.008258232624706e-42,0.0,0.0,0.0,3.6592246647828435e-23,3.2103630633873283e-29,43.327000000000005,3.6592246647828435e-23,6.658871320476471e-23,43.327000000000005,-7.685106643427065e-25,7.684371796044714e-23,1.5041282874130076e-43,21.663500000000003,21.663500000000003,1.280728632674119e-22,8.445598967809549e-25,8.445598967809549e-25,21.663500000000003,21.663500000000003,1.280728632674119e-22,8.445598967809549e-25,8.445598967809549e-25,-1.5368872343980589e-24,-1.5368872343980589e-24
1762666247.7595613,0.0,0.0,1.075,0.0,0.0,1.5,1.53688649343675e-24,0.0,0.0,-3.659224664782843e-24,-3.210363063405629e-30,0.0,1.3483524866304946e-27,-1.5368743592089429e-21,-3.008258232624706e-42,0.0,0.0,0.0,3.6592246647828435e-23,3.2103630633873283e-29,43.327000000000005,3.6592246647828435e-23,6.658871320476471e-23,43.327000000000005,-7.685106643427065e-25,7.684371796044714e-23,1.5041282874130076e-43,21.663500000000003,21.663500000000003,1.280728632674119e-22,8.445598967809549e-25,8.445598967809549e-25,21.663500000000003,21.663500000000003,1.280728632674119e-22,8.445598967809549e-25,8.445598967809549e-25,-1.5368872343980589e-24,-1.5368872343980589e-24
1762666247.76091,0.0,0.0,1.075,0.0,0.0,1.5,1.53688649343675e-24,0.0,0.0,-3.659224664782843e-24,-3.210363063405629e-30,0.0,1.3483524866304946e-27,-1.5368743592089429e-21,-3.008258232624706e-42,0.0,0.0,0.0,3.6592246647828435e-23,3.2103630633873283e-29,43.327000000000005,3.6592246647828435e-23,6.658871320476471e-23,43.327000000000005,-7.685106643427065e-25,7.684371796044714e-23,1.5041282874130076e-43,21.663500000000003,21.663500000000003,1.280728632674119e-22,8.445598967809549e-25,8.445598967809549e-25,21.663500000000003,21.663500000000003,1.280728632674119e-22,8.445598967809549e-25,8.445598967809549e-25,-1.5368872343980589e-24,-1.5368872343980589e-24
1762666247.7623158,0.0,0.0,1.075,0.0,0.0,1.5,1.53688649343675e-24,0.0,0.0,-3.659224664782843e-24,-3.210363063405629e-30,0.0,1.3483524866304946e-27,-1.5368743592089429e-21,-3.008258232624706e-42,0.0,0.0,0.0,3.6592246647828435e-23,3.2103630633873283e-29,43.327000000000005,3.6592246647828435e-23,6.658871320476471e-23,43.327000000000005,-7.685106643427065e-25,7.684371796044714e-23,1.5041282874130076e-43,21.663500000000003,21.663500000000003,1.280728632674119e-22,8.445598967809549e-25,8.445598967809549e-25,21.663500000000003,21.663500000000003,1.280728632674119e-22,8.445598967809549e-25,8.445598967809549e-25,-1.5368872343980589e-24,-1.5368872343980589e-24
1762666247.7635543,0.0,0.0,1.075,0.0,0.0,1.5,1.53688649343675e-24,0.0,0.0,-3.659224664782843e-24,-3.210363063405629e-30,0.0,1.3483524866304946e-27,-1.5368743592089429e-21,-3.008258232624706e-42,0.0,0.0,0.0,3.6592246647828435e-23,3.2103630633873283e-29,43.327000000000005,3.6592246647828435e-23,6.658871320476471e-23,43.327000000000005,-7.685106643427065e-25,7.684371796044714e-23,1.5041282874130076e-43,21.663500000000003,21.663500000000003,1.280728632674119e-22,8.445598967809549e-25,8.445598967809549e-25,21.663500000000003,21.663500000000003,1.280728632674119e-22,8.445598967809549e-25,8.445598967809549e-25,-1.5368872343980589e-24,-1.5368872343980589e-24
1762666247.764817,0.0,0.0,1.075,0.0,0.0,1.5,1.53688649343675e-24,0.0,0.0,-3.659224664782843e-24,-3.210363063405629e-30,0.0,1.3483524866304946e-27,-1.5368743592089429e-21,-3.008258232624706e-42,0.0,0.0,0.0,3.6592246647828435e-23,3.2103630633873283e-29,43.327000000000005,3.6592246647828435e-23,6.658871320476471e-23,43.327000000000005,-7.685106643427065e-25,7.684371796044714e-23,1.5041282874130076e-43,21.663500000000003,21.663500000000003,1.280728632674119e-22,8.445598967809549e-25,8.445598967809549e-25,21.663500000000003,21.663500000000003,1.280728632674119e-22,8.445598967809549e-25,8.445598967809549e-25,-1.5368872343980589e-24,-1.5368872343980589e-24
1762666247.7662766,0.0,0.0,1.075,0.0,0.0,1.5,1.53688649343675e-24,0.0,0.0,-3.659224664782843e-24,-3.210363063405629e-30,0.0,1.3483524866304946e-27,-1.5368743592089429e-21,-3.008258232624706e-42,0.0,0.0,0.0,3.6592246647828435e-23,3.2103630633873283e-29,43.327000000000005,3.6592246647828435e-23,6.658871320476471e-23,43.327000000000005,-7.685106643427065e-25,7.684371796044714e-23,1.5041282874130076e-43,21.663500000000003,21.663500000000003,1.280728632674119e-22,8.445598967809549e-25,8.445598967809549e-25,21.663500000000003,21.663500000000003,1.280728632674119e-22,8.445598967809549e-25,8.445598967809549e-25,-1.5368872343980589e-24,-1.5368872343980589e-24
1762666247.7676702,0.0,0.0,1.075,0.0,0.0,1.5,1.53688649343675e-24,0.0,0.0,-3.659224664782843e-24,-3.210363063405629e-30,0.0,1.3483524866304946e-27,-1.5368743592089429e-21,-3.008258232624706e-42,0.0,0.0,0.0,3.6592246647828435e-23,3.2103630633873283e-29,43.327000000000005,3.6592246647828435e-23,6.658871320476471e-23,43.327000000000005,-7.685106643427065e-25,7.684371796044714e-23,1.5041282874130076e-43,21.663500000000003,21.663500000000003,1.280728632674119e-22,8.445598967809549e-25,8.445598967809549e-25,21.663500000000003,21.663500000000003,1.280728632674119e-22,8.445598967809549e-25,8.445598967809549e-25,-1.5368872343980589e-24,-1.5368872343980589e-24
1762666247.7690015,0.0,0.0,1.075,0.0,0.0,1.5,1.53688649343675e-24,0.0,0.0,-3.659224664782843e-24,-3.210363063405629e-30,0.0,1.3483524866304946e-27,-1.5368743592089429e-21,-3.008258232624706e-42,0.0,0.0,0.0,3.6592246647828435e-23,3.2103630633873283e-29,43.327000000000005,3.6592246647828435e-23,6.658871320476471e-23,43.327000000000005,-7.685106643427065e-25,7.684371796044714e-23,1.5041282874130076e-43,21.663500000000003,21.663500000000003,1.280728632674119e-22,8.445598967809549e-25,8.445598967809549e-25,21.663500000000003,21.663500000000003,1.280728632674119e-22,8.445598967809549e-25,8.445598967809549e-25,-1.5368872343980589e-24,-1.5368872343980589e-24
1762666247.7703872,0.0,0.0,1.075,0.0,0.0,1.5,1.53688649343675e-24,0.0,0.0,-3.659224664782843e-24,-3.210363063405629e-30,0.0,1.3483524866304946e-27,-1.5368743592089429e-21,-3.008258232624706e-42,0.0,0.0,0.0,3.6592246647828435e-23,3.2103630633873283e-29,43.327000000000005,3.6592246647828435e-23,6.658871320476471e-23,43.327000000000005,-7.685106643427065e-25,7.684371796044714e-23,1.5041282874130076e-43,21.663500000000003,21.663500000000003,1.280728632674119e-22,8.445598967809549e-25,8.445598967809549e-25,21.663500000000003,21.663500000000003,1.280728632674119e-22,8.445598967809549e-25,8.445598967809549e-25,-1.5368872343980589e-24,-1.5368872343980589e-24
1762666247.7716463,0.0,0.0,1.075,0.0,0.0,1.5,1.53688649343675e-24,0.0,0.0,-3.659224664782843e-24,-3.210363063405629e-30,0.0,1.3483524866304946e-27,-1.5368743592089429e-21,-3.008258232624706e-42,0.0,0.0,0.0,3.6592246647828435e-23,3.2103630633873283e-29,43.327000000000005,3.6592246647828435e-23,6.658871320476471e-23,43.327000000000005,-7.685106643427065e-25,7.684371796044714e-23,1.5041282874130076e-43,21.663500000000003,21.663500000000003,1.280728632674119e-22,8.445598967809549e-25,8.445598967809549e-25,21.663500000000003,21.663500000000003,1.280728632674119e-22,8.445598967809549e-25,8.445598967809549e-25,-1.5368872343980589e-24,-1.5368872343980589e-24
1762666247.773028,0.0,0.0,1.075,0.0,0.0,1.5,3.45792872834034e-24,0.0,0.0,-5.488637122937478e-24,-1.595489787679461e-29,0.0,6.701057108254384e-27,-2.305227591633964e-21,-4.4508729663500764e-42,0.0,0.0,0.0,3.6592246647828435e-23,3.2103630633873283e-29,43.327000000000005,3.6592246647828435e-23,6.658871320476471e-23,43.327000000000005,-7.685106643427065e-25,7.684371796044714e-23,1.5041282874130076e-43,21.663500000000003,21.663500000000003,1.280728632674119e-22,8.445598967809549e-25,8.445598967809549e-25,21.663500000000003,21.663500000000003,1.280728632674119e-22,8.445598967809549e-25,8.445598967809549e-25,-1.5368872343980589e-24,-1.5368872343980589e-24
1762666247.7745247,0.0,0.0,1.075,0.0,0.0,1.5,3.45792872834034e-24,0.0,0.0,-5.488637122937478e-24,-1.595489787679461e-29,0.0,6.701057108254384e-27,-2.305227591633964e-21,-4.4508729663500764e-42,0.0,0.0,0.0,5.488637122937479e-23,1.5954897877635704e-28,43.327000000000005,5.488637122937479e-23,1.498218375617807e-22,43.327000000000005,-1.729299417025583e-24,1.152613795816982e-22,2.225430304190343e-43,21.663500000000003,21.663500000000003,1.9210229930283034e-22,1.2667937136052526e-24,1.2667937136052526e-24,21.663500000000003,21.663500000000003,1.9210229930283034e-22,1.2667937136052526e-24,1.2667937136052526e-24,-3.457932410778053e-24,-3.457932410778053e-24
1762666247.7760983,0.0,0.0,1.075,0.0,0.0,1.5,3.45792872834034e-24,0.0,0.0,-5.488637122937478e-24,-1.595489787679461e-29,0.0,6.701057108254384e-27,-2.305227591633964e-21,-4.4508729663500764e-42,0.0,0.0,0.0,5.488637122937479e-23,1.5954897877635704e-28,43.327000000000005,5.488637122937479e-23,1.498218375617807e-22,43.327000000000005,-1.729299417025583e-24,1.152613795816982e-22,2.225430304190343e-43,21.663500000000003,21.663500000000003,1.9210229930283034e-22,1.2667937136052526e-24,1.2667937136052526e-24,21.663500000000003,21.663500000000003,1.9210229930283034e-22,1.2667937136052526e-24,1.2667937136052526e-24,-3.457932410778053e-24,-3.457932410778053e-24
1762666247.7775233,0.0,0.0,1.075,0.0,0.0,1.5,3.45792872834034e-24,0.0,0.0,-5.488637122937478e-24,-1.595489787679461e-29,0.0,6.701057108254384e-27,-2.305227591633964e-21,-4.4508729663500764e-42,0.0,0.0,0.0,5.488637122937479e-23,1.5954897877635704e-28,43.327000000000005,5.488637122937479e-23,1.498218375617807e-22,43.327000000000005,-1.729299417025583e-24,1.152613795816982e-22,2.225430304190343e-43,21.663500000000003,21.663500000000003,1.9210229930283034e-22,1.2667937136052526e-24,1.2667937136052526e-24,21.663500000000003,21.663500000000003,1.9210229930283034e-22,1.2667937136052526e-24,1.2667937136052526e-24,-3.457932410778053e-24,-3.457932410778053e-24
1762666247.778841,0.0,0.0,1.075,0.0,0.0,1.5,3.45792872834034e-24,0.0,0.0,-5.488637122937478e-24,-1.595489787679461e-29,0.0,6.701057108254384e-27,-2.305227591633964e-21,-4.4508729663500764e-42,0.0,0.0,0.0,5.488637122937479e-23,1.5954897877635704e-28,43.327000000000005,5.488637122937479e-23,1.498218375617807e-22,43.327000000000005,-1.729299417025583e-24,1.152613795816982e-22,2.225430304190343e-43,21.663500000000003,21.663500000000003,1.9210229930283034e-22,1.2667937136052526e-24,1.2667937136052526e-24,21.663500000000003,21.663500000000003,1.9210229930283034e-22,1.2667937136052526e-24,1.2667937136052526e-24,-3.457932410778053e-24,-3.457932410778053e-24
1762666247.7801378,0.0,0.0,1.075,0.0,0.0,1.5,3.45792872834034e-24,0.0,0.0,-5.488637122937478e-24,-1.595489787679461e-29,0.0,6.701057108254384e-27,-2.305227591633964e-21,-4.4508729663500764e-42,0.0,0.0,0.0,5.488637122937479e-23,1.5954897877635704e-28,43.327000000000005,5.488637122937479e-23,1.498218375617807e-22,43.327000000000005,-1.729299417025583e-24,1.152613795816982e-22,2.225430304190343e-43,21.663500000000003,21.663500000000003,1.9210229930283034e-22,1.2667937136052526e-24,1.2667937136052526e-24,21.663500000000003,21.663500000000003,1.9210229930283034e-22,1.2667937136052526e-24,1.2667937136052526e-24,-3.457932410778053e-24,-3.457932410778053e-24
1762666247.7814488,0.0,0.0,1.075,0.0,0.0,1.5,3.45792872834034e-24,0.0,0.0,-5.488637122937478e-24,-1.595489787679461e-29,0.0,6.701057108254384e-27,-2.305227591633964e-21,-4.4508729663500764e-42,0.0,0.0,0.0,5.488637122937479e-23,1.5954897877635704e-28,43.327000000000005,5.488637122937479e-23,1.498218375617807e-22,43.327000000000005,-1.729299417025583e-24,1.152613795816982e-22,2.225430304190343e-43,21.663500000000003,21.663500000000003,1.9210229930283034e-22,1.2667937136052526e-24,1.2667937136052526e-24,21.663500000000003,21.663500000000003,1.9210229930283034e-22,1.2667937136052526e-24,1.2667937136052526e-24,-3.457932410778053e-24,-3.457932410778053e-24
1762666247.7828634,0.0,0.0,1.075,0.0,0.0,1.5,3.45792872834034e-24,0.0,0.0,-5.488637122937478e-24,-1.595489787679461e-29,0.0,6.701057108254384e-27,-2.305227591633964e-21,-4.4508729663500764e-42,0.0,0.0,0.0,5.488637122937479e-23,1.5954897877635704e-28,43.327000000000005,5.488637122937479e-23,1.498218375617807e-22,43.327000000000005,-1.729299417025583e-24,1.152613795816982e-22,2.225430304190343e-43,21.663500000000003,21.663500000000003,1.9210229930283034e-22,1.2667937136052526e-24,1.2667937136052526e-24,21.663500000000003,21.663500000000003,1.9210229930283034e-22,1.2667937136052526e-24,1.2667937136052526e-24,-3.457932410778053e-24,-3.457932410778053e-24
1762666247.7843704,0.0,0.0,1.075,0.0,0.0,1.5,3.45792872834034e-24,0.0,0.0,-5.488637122937478e-24,-1.595489787679461e-29,0.0,6.701057108254384e-27,-2.305227591633964e-21,-4.4508729663500764e-42,0.0,0.0,0.0,5.488637122937479e-23,1.5954897877635704e-28,43.327000000000005,5.488637122937479e-23,1.498218375617807e-22,43.327000000000005,-1.729299417025583e-24,1.152613795816982e-22,2.225430304190343e-43,21.663500000000003,21.663500000000003,1.9210229930283034e-22,1.2667937136052526e-24,1.2667937136052526e-24,21.663500000000003,21.663500000000003,1.9210229930283034e-22,1.2667937136052526e-24,1.2667937136052526e-24,-3.457932410778053e-24,-3.457932410778053e-24
1762666247.785735,0.0,0.0,1.075,0.0,0.0,1.5,3.45792872834034e-24,0.0,0.0,-5.488637122937478e-24,-1.595489787679461e-29,0.0,6.701057108254384e-27,-2.305227591633964e-21,-4.4508729663500764e-42,0.0,0.0,0.0,5.488637122937479e-23,1.5954897877635704e-28,43.327000000000005,5.488637122937479e-23,1.498218375617807e-22,43.327000000000005,-1.729299417025583e-24,1.152613795816982e-22,2.225430304190343e-43,21.663500000000003,21.663500000000003,1.9210229930283034e-22,1.2667937136052526e-24,1.2667937136052526e-24,21.663500000000003,21.663500000000003,1.9210229930283034e-22,1.2667937136052526e-24,1.2667937136052526e-24,-3.457932410778053e-24,-3.457932410778053e-24
1762666247.787025,0.0,0.0,1.075,0.0,0.0,1.5,3.45792872834034e-24,0.0,0.0,-5.488637122937478e-24,-1.595489787679461e-29,0.0,6.701057108254384e-27,-2.305227591633964e-21,-4.4508729663500764e-42,0.0,0.0,0.0,5.488637122937479e-23,1.5954897877635704e-28,43.327000000000005,5.488637122937479e-23,1.498218375617807e-22,43.327000000000005,-1.729299417025583e-24,1.152613795816982e-22,2.225430304190343e-43,21.663500000000003,21.663500000000003,1.9210229930283034e-22,1.2667937136052526e-24,1.2667937136052526e-24,21.663500000000003,21.663500000000003,1.9210229930283034e-22,1.2667937136052526e-24,1.2667937136052526e-24,-3.457932410778053e-24,-3.457932410778053e-24
1762666247.788355,0.0,0.0,1.075,0.0,0.0,1.5,3.45792872834034e-24,0.0,0.0,-5.488637122937478e-24,-1.595489787679461e-29,0.0,6.701057108254384e-27,-2.305227591633964e-21,-4.4508729663500764e-42,0.0,0.0,0.0,5.488637122937479e-23,1.5954897877635704e-28,43.327000000000005,5.488637122937479e-23,1.498218375617807e-22,43.327000000000005,-1.729299417025583e-24,1.152613795816982e-22,2.225430304190343e-43,21.663500000000003,21.663500000000003,1.9210229930283034e-22,1.2667937136052526e-24,1.2667937136052526e-24,21.663500000000003,21.663500000000003,1.9210229930283034e-22,1.2667937136052526e-24,1.2667937136052526e-24,-3.457932410778053e-24,-3.457932410778053e-24
1762666247.789594,0.0,0.0,1.075,0.0,0.0,1.5,3.45792872834034e-24,0.0,0.0,-5.488637122937478e-24,-1.595489787679461e-29,0.0,6.701057108254384e-27,-2.305227591633964e-21,-4.4508729663500764e-42,0.0,0.0,0.0,5.488637122937479e-23,1.5954897877635704e-28,43.327000000000005,5.488637122937479e-23,1.498218375617807e-22,43.327000000000005,-1.729299417025583e-24,1.152613795816982e-22,2.225430304190343e-43,21.663500000000003,21.663500000000003,1.9210229930283034e-22,1.2667937136052526e-24,1.2667937136052526e-24,21.663500000000003,21.663500000000003,1.9210229930283034e-22,1.2667937136052526e-24,1.2667937136052526e-24,-3.457932410778053e-24,-3.457932410778053e-24
1762666247.7910085,0.0,0.0,1.075,0.0,0.0,1.5,3.45792872834034e-24,0.0,0.0,-5.488637122937478e-24,-1.595489787679461e-29,0.0,6.701057108254384e-27,-2.305227591633964e-21,-4.4508729663500764e-42,0.0,0.0,0.0,5.488637122937479e-23,1.5954897877635704e-28,43.327000000000005,5.488637122937479e-23,1.498218375617807e-22,43.327000000000005,-1.729299417025583e-24,1.152613795816982e-22,2.225430304190343e-43,21.663500000000003,21.663500000000003,1.9210229930283034e-22,1.2667937136052526e-24,1.2667937136052526e-24,21.663500000000003,21.663500000000003,1.9210229930283034e-22,1.2667937136052526e-24,1.2667937136052526e-24,-3.457932410778053e-24,-3.457932410778053e-24
1762666247.7925012,0.0,0.0,1.075,0.0,0.0,1.5,3.45792872834034e-24,0.0,0.0,-5.488637122937478e-24,-1.595489787679461e-29,0.0,6.701057108254384e-27,-2.305227591633964e-21,-4.4508729663500764e-42,0.0,0.0,0.0,5.488637122937479e-23,1.5954897877635704e-28,43.327000000000005,5.488637122937479e-23,1.498218375617807e-22,43.327000000000005,-1.729299417025583e-24,1.152613795816982e-22,2.225430304190343e-43,21.663500000000003,21.663500000000003,1.9210229930283034e-22,1.2667937136052526e-24,1.2667937136052526e-24,21.663500000000003,21.663500000000003,1.9210229930283034e-22,1.2667937136052526e-24,1.2667937136052526e-24,-3.457932410778053e-24,-3.457932410778053e-24
1762666247.7939117,0.0,0.0,1.075,0.0,0.0,1.5,3.45792872834034e-24,0.0,0.0,-5.488637122937478e-24,-1.595489787679461e-29,0.0,6.701057108254384e-27,-2.305227591633964e-21,-4.4508729663500764e-42,0.0,0.0,0.0,5.488637122937479e-23,1.5954897877635704e-28,43.327000000000005,5.488637122937479e-23,1.498218375617807e-22,43.327000000000005,-1.729299417025583e-24,1.152613795816982e-22,2.225430304190343e-43,21.663500000000003,21.663500000000003,1.9210229930283034e-22,1.2667937136052526e-24,1.2667937136052526e-24,21.663500000000003,21.663500000000003,1.9210229930283034e-22,1.2667937136052526e-24,1.2667937136052526e-24,-3.457932410778053e-24,-3.457932410778053e-24
1762666247.7953076,0.0,0.0,1.075,0.0,0.0,1.5,3.45792872834034e-24,0.0,0.0,-5.488637122937478e-24,-1.595489787679461e-29,0.0,6.701057108254384e-27,-2.305227591633964e-21,-4.4508729663500764e-42,0.0,0.0,0.0,5.488637122937479e-23,1.5954897877635704e-28,43.327000000000005,5.488637122937479e-23,1.498218375617807e-22,43.327000000000005,-1.729299417025583e-24,1.152613795816982e-22,2.225430304190343e-43,21.663500000000003,21.663500000000003,1.9210229930283034e-22,1.2667937136052526e-24,1.2667937136052526e-24,21.663500000000003,21.663500000000003,1.9210229930283034e-22,1.2667937136052526e-24,1.2667937136052526e-24,-3.457932410778053e-24,-3.457932410778053e-24
1762666247.796546,0.0,0.0,1.075,0.0,0.0,1.5,3.45792872834034e-24,0.0,0.0,-5.488637122937478e-24,-1.595489787679461e-29,0.0,6.701057108254384e-27,-2.305227591633964e-21,-4.4508729663500764e-42,0.0,0.0,0.0,5.488637122937479e-23,1.5954897877635704e-28,43.327000000000005,5.488637122937479e-23,1.498218375617807e-22,43.327000000000005,-1.729299417025583e-24,1.152613795816982e-22,2.225430304190343e-43,21.663500000000003,21.663500000000003,1.9210229930283034e-22,1.2667937136052526e-24,1.2667937136052526e-24,21.663500000000003,21.663500000000003,1.9210229930283034e-22,1.2667937136052526e-24,1.2667937136052526e-24,-3.457932410778053e-24,-3.457932410778053e-24
1762666247.7978706,0.0,0.0,1.075,0.0,0.0,1.5,3.45792872834034e-24,0.0,0.0,-5.488637122937478e-24,-1.595489787679461e-29,0.0,6.701057108254384e-27,-2.305227591633964e-21,-4.4508729663500764e-42,0.0,0.0,0.0,5.488637122937479e-23,1.5954897877635704e-28,43.327000000000005,5.488637122937479e-23,1.498218375617807e-22,43.327000000000005,-1.729299417025583e-24,1.152613795816982e-22,2.225430304190343e-43,21.663500000000003,21.663500000000003,1.9210229930283034e-22,1.2667937136052526e-24,1.2667937136052526e-24,21.663500000000003,21.663500000000003,1.9210229930283034e-22,1.2667937136052526e-24,1.2667937136052526e-24,-3.457932410778053e-24,-3.457932410778053e-24
1762666247.7992134,0.0,0.0,1.075,0.0,0.0,1.5,3.45792872834034e-24,0.0,0.0,-5.488637122937478e-24,-1.595489787679461e-29,0.0,6.701057108254384e-27,-2.305227591633964e-21,-4.4508729663500764e-42,0.0,0.0,0.0,5.488637122937479e-23,1.5954897877635704e-28,43.327000000000005,5.488637122937479e-23,1.498218375617807e-22,43.327000000000005,-1.729299417025583e-24,1.152613795816982e-22,2.225430304190343e-43,21.663500000000003,21.663500000000003,1.9210229930283034e-22,1.2667937136052526e-24,1.2667937136052526e-24,21.663500000000003,21.663500000000003,1.9210229930283034e-22,1.2667937136052526e-24,1.2667937136052526e-24,-3.457932410778053e-24,-3.457932410778053e-24
1762666247.8007102,0.0,0.0,1.075,0.0,0.0,1.5,3.45792872834034e-24,0.0,0.0,-5.488637122937478e-24,-1.595489787679461e-29,0.0,6.701057108254384e-27,-2.305227591633964e-21,-4.4508729663500764e-42,0.0,0.0,0.0,5.488637122937479e-23,1.5954897877635704e-28,43.327000000000005,5.488637122937479e-23,1.498218375617807e-22,43.327000000000005,-1.729299417025583e-24,1.152613795816982e-22,2.225430304190343e-43,21.663500000000003,21.663500000000003,1.9210229930283034e-22,1.2667937136052526e-24,1.2667937136052526e-24,21.663500000000003,21.663500000000003,1.9210229930283034e-22,1.2667937136052526e-24,1.2667937136052526e-24,-3.457932410778053e-24,-3.457932410778053e-24
1762666247.8020828,0.0,0.0,1.075,0.0,0.0,1.5,3.45792872834034e-24,0.0,0.0,-5.488637122937478e-24,-1.595489787679461e-29,0.0,6.701057108254384e-27,-2.305227591633964e-21,-4.4508729663500764e-42,0.0,0.0,0.0,5.488637122937479e-23,1.5954897877635704e-28,43.327000000000005,5.488637122937479e-23,1.498218375617807e-22,43.327000000000005,-1.729299417025583e-24,1.152613795816982e-22,2.225430304190343e-43,21.663500000000003,21.663500000000003,1.9210229930283034e-22,1.2667937136052526e-24,1.2667937136052526e-24,21.663500000000003,21.663500000000003,1.9210229930283034e-22,1.2667937136052526e-24,1.2667937136052526e-24,-3.457932410778053e-24,-3.457932410778053e-24
1762666247.8035243,0.0,0.0,1.075,0.0,0.0,1.5,3.45792872834034e-24,0.0,0.0,-5.488637122937478e-24,-1.595489787679461e-29,0.0,6.701057108254384e-27,-2.305227591633964e-21,-4.4508729663500764e-42,0.0,0.0,0.0,5.488637122937479e-23,1.5954897877635704e-28,43.327000000000005,5.488637122937479e-23,1.498218375617807e-22,43.327000000000005,-1.729299417025583e-24,1.152613795816982e-22,2.225430304190343e-43,21.663500000000003,21.663500000000003,1.9210229930283034e-22,1.2667937136052526e-24,1.2667937136052526e-24,21.663500000000003,21.663500000000003,1.9210229930283034e-22,1.2667937136052526e-24,1.2667937136052526e-24,-3.457932410778053e-24,-3.457932410778053e-24
1762666247.8048534,0.0,0.0,1.075,0.0,0.0,1.5,3.45792872834034e-24,0.0,0.0,-5.488637122937478e-24,-1.595489787679461e-29,0.0,6.701057108254384e-27,-2.305227591633964e-21,-4.4508729663500764e-42,0.0,0.0,0.0,5.488637122937479e-23,1.5954897877635704e-28,43.327000000000005,5.488637122937479e-23,1.498218375617807e-22,43.327000000000005,-1.729299417025583e-24,1.152613795816982e-22,2.225430304190343e-43,21.663500000000003,21.663500000000003,1.9210229930283034e-22,1.2667937136052526e-24,1.2667937136052526e-24,21.663500000000003,21.663500000000003,1.9210229930283034e-22,1.2667937136052526e-24,1.2667937136052526e-24,-3.457932410778053e-24,-3.457932410778053e-24
1762666247.8061206,0.0,0.0,1.075,0.0,0.0,1.5,3.45792872834034e-24,0.0,0.0,-5.488637122937478e-24,-1.595489787679461e-29,0.0,6.701057108254384e-27,-2.305227591633964e-21,-4.4508729663500764e-42,0.0,0.0,0.0,5.488637122937479e-23,1.5954897877635704e-28,43.327000000000005,5.488637122937479e-23,1.498218375617807e-22,43.327000000000005,-1.729299417025583e-24,1.152613795816982e-22,2.225430304190343e-43,21.663500000000003,21.663500000000003,1.9210229930283034e-22,1.2667937136052526e-24,1.2667937136052526e-24,21.663500000000003,21.663500000000003,1.9210229930283034e-22,1.2667937136052526e-24,1.2667937136052526e-24,-3.457932410778053e-24,-3.457932410778053e-24
1762666247.8075132,0.0,0.0,1.075,0.0,0.0,1.5,3.45792872834034e-24,0.0,0.0,-5.488637122937478e-24,-1.595489787679461e-29,0.0,6.701057108254384e-27,-2.305227591633964e-21,-4.4508729663500764e-42,0.0,0.0,0.0,5.488637122937479e-23,1.5954897877635704e-28,43.327000000000005,5.488637122937479e-23,1.498218375617807e-22,43.327000000000005,-1.729299417025583e-24,1.152613795816982e-22,2.225430304190343e-43,21.663500000000003,21.663500000000003,1.9210229930283034e-22,1.2667937136052526e-24,1.2667937136052526e-24,21.663500000000003,21.663500000000003,1.9210229930283034e-22,1.2667937136052526e-24,1.2667937136052526e-24,-3.457932410778053e-24,-3.457932410778053e-24
1762666247.809003,0.0,0.0,1.075,0.0,0.0,1.5,3.45792872834034e-24,0.0,0.0,-5.488637122937478e-24,-1.595489787679461e-29,0.0,6.701057108254384e-27,-2.305227591633964e-21,-4.4508729663500764e-42,0.0,0.0,0.0,5.488637122937479e-23,1.5954897877635704e-28,43.327000000000005,5.488637122937479e-23,1.498218375617807e-22,43.327000000000005,-1.729299417025583e-24,1.152613795816982e-22,2.225430304190343e-43,21.663500000000003,21.663500000000003,1.9210229930283034e-22,1.2667937136052526e-24,1.2667937136052526e-24,21.663500000000003,21.663500000000003,1.9210229930283034e-22,1.2667937136052526e-24,1.2667937136052526e-24,-3.457932410778053e-24,-3.457932410778053e-24
1762666247.8103688,0.0,0.0,1.075,0.0,0.0,1.5,3.45792872834034e-24,0.0,0.0,-5.488637122937478e-24,-1.595489787679461e-29,0.0,6.701057108254384e-27,-2.305227591633964e-21,-4.4508729663500764e-42,0.0,0.0,0.0,5.488637122937479e-23,1.5954897877635704e-28,43.327000000000005,5.488637122937479e-23,1.498218375617807e-22,43.327000000000005,-1.729299417025583e-24,1.152613795816982e-22,2.225430304190343e-43,21.663500000000003,21.663500000000003,1.9210229930283034e-22,1.2667937136052526e-24,1.2667937136052526e-24,21.663500000000003,21.663500000000003,1.9210229930283034e-22,1.2667937136052526e-24,1.2667937136052526e-24,-3.457932410778053e-24,-3.457932410778053e-24
1762666247.81173,0.0,0.0,1.075,0.0,0.0,1.5,3.45792872834034e-24,0.0,0.0,-5.488637122937478e-24,-1.595489787679461e-29,0.0,6.701057108254384e-27,-2.305227591633964e-21,-4.4508729663500764e-42,0.0,0.0,0.0,5.488637122937479e-23,1.5954897877635704e-28,43.327000000000005,5.488637122937479e-23,1.498218375617807e-22,43.327000000000005,-1.729299417025583e-24,1.152613795816982e-22,2.225430304190343e-43,21.663500000000003,21.663500000000003,1.9210229930283034e-22,1.2667937136052526e-24,1.2667937136052526e-24,21.663500000000003,21.663500000000003,1.9210229930283034e-22,1.2667937136052526e-24,1.2667937136052526e-24,-3.457932410778053e-24,-3.457932410778053e-24
1762666247.8130336,0.0,0.0,1.075,0.0,0.0,1.5,3.45792872834034e-24,0.0,0.0,-5.488637122937478e-24,-1.595489787679461e-29,0.0,6.701057108254384e-27,-2.305227591633964e-21,-4.4508729663500764e-42,0.0,0.0,0.0,5.488637122937479e-23,1.5954897877635704e-28,43.327000000000005,5.488637122937479e-23,1.498218375617807e-22,43.327000000000005,-1.729299417025583e-24,1.152613795816982e-22,2.225430304190343e-43,21.663500000000003,21.663500000000003,1.9210229930283034e-22,1.2667937136052526e-24,1.2667937136052526e-24,21.663500000000003,21.663500000000003,1.9210229930283034e-22,1.2667937136052526e-24,1.2667937136052526e-24,-3.457932410778053e-24,-3.457932410778053e-24
1762666247.8142846,0.0,0.0,1.075,0.0,0.0,1.5,3.45792872834034e-24,0.0,0.0,-5.488637122937478e-24,-1.595489787679461e-29,0.0,6.701057108254384e-27,-2.305227591633964e-21,-4.4508729663500764e-42,0.0,0.0,0.0,5.488637122937479e-23,1.5954897877635704e-28,43.327000000000005,5.488637122937479e-23,1.498218375617807e-22,43.327000000000005,-1.729299417025583e-24,1.152613795816982e-22,2.225430304190343e-43,21.663500000000003,21.663500000000003,1.9210229930283034e-22,1.2667937136052526e-24,1.2667937136052526e-24,21.663500000000003,21.663500000000003,1.9210229930283034e-22,1.2667937136052526e-24,1.2667937136052526e-24,-3.457932410778053e-24,-3.457932410778053e-24
1762666247.8155951,0.0,0.0,1.075,0.0,0.0,1.5,3.45792872834034e-24,0.0,0.0,-5.488637122937478e-24,-1.595489787679461e-29,0.0,6.701057108254384e-27,-2.305227591633964e-21,-4.4508729663500764e-42,0.0,0.0,0.0,5.488637122937479e-23,1.5954897877635704e-28,43.327000000000005,5.488637122937479e-23,1.498218375617807e-22,43.327000000000005,-1.729299417025583e-24,1.152613795816982e-22,2.225430304190343e-43,21.663500000000003,21.663500000000003,1.9210229930283034e-22,1.2667937136052526e-24,1.2667937136052526e-24,21.663500000000003,21.663500000000003,1.9210229930283034e-22,1.2667937136052526e-24,1.2667937136052526e-24,-3.457932410778053e-24,-3.457932410778053e-24
1762666247.8170967,0.0,0.0,1.075,0.0,0.0,1.5,3.45792872834034e-24,0.0,0.0,-5.488637122937478e-24,-1.595489787679461e-29,0.0,6.701057108254384e-27,-2.305227591633964e-21,-4.4508729663500764e-42,0.0,0.0,0.0,5.488637122937479e-23,1.5954897877635704e-28,43.327000000000005,5.488637122937479e-23,1.498218375617807e-22,43.327000000000005,-1.729299417025583e-24,1.152613795816982e-22,2.225430304190343e-43,21.663500000000003,21.663500000000003,1.9210229930283034e-22,1.2667937136052526e-24,1.2667937136052526e-24,21.663500000000003,21.663500000000003,1.9210229930283034e-22,1.2667937136052526e-24,1.2667937136052526e-24,-3.457932410778053e-24,-3.457932410778053e-24
1762666247.818533,0.0,0.0,1.075,0.0,0.0,1.5,3.45792872834034e-24,0.0,0.0,-5.488637122937478e-24,-1.595489787679461e-29,0.0,6.701057108254384e-27,-2.305227591633964e-21,-4.4508729663500764e-42,0.0,0.0,0.0,5.488637122937479e-23,1.5954897877635704e-28,43.327000000000005,5.488637122937479e-23,1.498218375617807e-22,43.327000000000005,-1.729299417025583e-24,1.152613795816982e-22,2.225430304190343e-43,21.663500000000003,21.663500000000003,1.9210229930283034e-22,1.2667937136052526e-24,1.2667937136052526e-24,21.663500000000003,21.663500000000003,1.9210229930283034e-22,1.2667937136052526e-24,1.2667937136052526e-24,-3.457932410778053e-24,-3.457932410778053e-24
1762666247.8199096,0.0,0.0,1.075,0.0,0.0,1.5,3.45792872834034e-24,0.0,0.0,-5.488637122937478e-24,-1.595489787679461e-29,0.0,6.701057108254384e-27,-2.305227591633964e-21,-4.4508729663500764e-42,0.0,0.0,0.0,5.488637122937479e-23,1.5954897877635704e-28,43.327000000000005,5.488637122937479e-23,1.498218375617807e-22,43.327000000000005,-1.729299417025583e-24,1.152613795816982e-22,2.225430304190343e-43,21.663500000000003,21.663500000000003,1.9210229930283034e-22,1.2667937136052526e-24,1.2667937136052526e-24,21.663500000000003,21.663500000000003,1.9210229930283034e-22,1.2667937136052526e-24,1.2667937136052526e-24,-3.457932410778053e-24,-3.457932410778053e-24
1762666247.8212354,0.0,0.0,1.075,0.0,0.0,1.5,3.45792872834034e-24,0.0,0.0,-5.488637122937478e-24,-1.595489787679461e-29,0.0,6.701057108254384e-27,-2.305227591633964e-21,-4.4508729663500764e-42,0.0,0.0,0.0,5.488637122937479e-23,1.5954897877635704e-28,43.327000000000005,5.488637122937479e-23,1.498218375617807e-22,43.327000000000005,-1.729299417025583e-24,1.152613795816982e-22,2.225430304190343e-43,21.663500000000003,21.663500000000003,1.9210229930283034e-22,1.2667937136052526e-24,1.2667937136052526e-24,21.663500000000003,21.663500000000003,1.9210229930283034e-22,1.2667937136052526e-24,1.2667937136052526e-24,-3.457932410778053e-24,-3.457932410778053e-24
1762666247.8225222,0.0,0.0,1.075,0.0,0.0,1.5,3.45792872834034e-24,0.0,0.0,-5.488637122937478e-24,-1.595489787679461e-29,0.0,6.701057108254384e-27,-2.305227591633964e-21,-4.4508729663500764e-42,0.0,0.0,0.0,5.488637122937479e-23,1.5954897877635704e-28,43.327000000000005,5.488637122937479e-23,1.498218375617807e-22,43.327000000000005,-1.729299417025583e-24,1.152613795816982e-22,2.225430304190343e-43,21.663500000000003,21.663500000000003,1.9210229930283034e-22,1.2667937136052526e-24,1.2667937136052526e-24,21.663500000000003,21.663500000000003,1.9210229930283034e-22,1.2667937136052526e-24,1.2667937136052526e-24,-3.457932410778053e-24,-3.457932410778053e-24
1762666247.8238983,0.0,0.0,1.075,0.0,0.0,1.5,3.45792872834034e-24,0.0,0.0,-5.488637122937478e-24,-1.595489787679461e-29,0.0,6.701057108254384e-27,-2.305227591633964e-21,-4.4508729663500764e-42,0.0,0.0,0.0,5.488637122937479e-23,1.5954897877635704e-28,43.327000000000005,5.488637122937479e-23,1.498218375617807e-22,43.327000000000005,-1.729299417025583e-24,1.152613795816982e-22,2.225430304190343e-43,21.663500000000003,21.663500000000003,1.9210229930283034e-22,1.2667937136052526e-24,1.2667937136052526e-24,21.663500000000003,21.663500000000003,1.9210229930283034e-22,1.2667937136052526e-24,1.2667937136052526e-24,-3.457932410778053e-24,-3.457932410778053e-24
1762666247.8254538,0.0,0.0,1.075,0.0,0.0,1.5,3.45792872834034e-24,0.0,0.0,-5.488637122937478e-24,-1.595489787679461e-29,0.0,6.701057108254384e-27,-2.305227591633964e-21,-4.4508729663500764e-42,0.0,0.0,0.0,5.488637122937479e-23,1.5954897877635704e-28,43.327000000000005,5.488637122937479e-23,1.498218375617807e-22,43.327000000000005,-1.729299417025583e-24,1.152613795816982e-22,2.225430304190343e-43,21.663500000000003,21.663500000000003,1.9210229930283034e-22,1.2667937136052526e-24,1.2667937136052526e-24,21.663500000000003,21.663500000000003,1.9210229930283034e-22,1.2667937136052526e-24,1.2667937136052526e-24,-3.457932410778053e-24,-3.457932410778053e-24
1762666247.8269024,0.0,0.0,1.075,0.0,0.0,1.5,3.45792872834034e-24,0.0,0.0,-5.488637122937478e-24,-1.595489787679461e-29,0.0,6.701057108254384e-27,-2.305227591633964e-21,-4.4508729663500764e-42,0.0,0.0,0.0,5.488637122937479e-23,1.5954897877635704e-28,43.327000000000005,5.488637122937479e-23,1.498218375617807e-22,43.327000000000005,-1.729299417025583e-24,1.152613795816982e-22,2.225430304190343e-43,21.663500000000003,21.663500000000003,1.9210229930283034e-22,1.2667937136052526e-24,1.2667937136052526e-24,21.663500000000003,21.663500000000003,1.9210229930283034e-22,1.2667937136052526e-24,1.2667937136052526e-24,-3.457932410778053e-24,-3.457932410778053e-24
1762666247.8282828,0.0,0.0,1.075,0.0,0.0,1.5,3.45792872834034e-24,0.0,0.0,-5.488637122937478e-24,-1.595489787679461e-29,0.0,6.701057108254384e-27,-2.305227591633964e-21,-4.4508729663500764e-42,0.0,0.0,0.0,5.488637122937479e-23,1.5954897877635704e-28,43.327000000000005,5.488637122937479e-23,1.498218375617807e-22,43.327000000000005,-1.729299417025583e-24,1.152613795816982e-22,2.225430304190343e-43,21.663500000000003,21.663500000000003,1.9210229930283034e-22,1.2667937136052526e-24,1.2667937136052526e-24,21.663500000000003,21.663500000000003,1.9210229930283034e-22,1.2667937136052526e-24,1.2667937136052526e-24,-3.457932410778053e-24,-3.457932410778053e-24
1762666247.8295336,0.0,0.0,1.075,0.0,0.0,1.5,3.45792872834034e-24,0.0,0.0,-5.488637122937478e-24,-1.595489787679461e-29,0.0,6.701057108254384e-27,-2.305227591633964e-21,-4.4508729663500764e-42,0.0,0.0,0.0,5.488637122937479e-23,1.5954897877635704e-28,43.327000000000005,5.488637122937479e-23,1.498218375617807e-22,43.327000000000005,-1.729299417025583e-24,1.152613795816982e-22,2.225430304190343e-43,21.663500000000003,21.663500000000003,1.9210229930283034e-22,1.2667937136052526e-24,1.2667937136052526e-24,21.663500000000003,21.663500000000003,1.9210229930283034e-22,1.2667937136052526e-24,1.2667937136052526e-24,-3.457932410778053e-24,-3.457932410778053e-24
1762666247.830745,0.0,0.0,1.075,0.0,0.0,1.5,3.45792872834034e-24,0.0,0.0,-5.488637122937478e-24,-1.595489787679461e-29,0.0,6.701057108254384e-27,-2.305227591633964e-21,-4.4508729663500764e-42,0.0,0.0,0.0,5.488637122937479e-23,1.5954897877635704e-28,43.327000000000005,5.488637122937479e-23,1.498218375617807e-22,43.327000000000005,-1.729299417025583e-24,1.152613795816982e-22,2.225430304190343e-43,21.663500000000003,21.663500000000003,1.9210229930283034e-22,1.2667937136052526e-24,1.2667937136052526e-24,21.663500000000003,21.663500000000003,1.9210229930283034e-22,1.2667937136052526e-24,1.2667937136052526e-24,-3.457932410778053e-24,-3.457932410778053e-24
1762666247.8320763,0.0,0.0,1.075,0.0,0.0,1.5,3.45792872834034e-24,0.0,0.0,-5.488637122937478e-24,-1.595489787679461e-29,0.0,6.701057108254384e-27,-2.305227591633964e-21,-4.4508729663500764e-42,0.0,0.0,0.0,5.488637122937479e-23,1.5954897877635704e-28,43.327000000000005,5.488637122937479e-23,1.498218375617807e-22,43.327000000000005,-1.729299417025583e-24,1.152613795816982e-22,2.225430304190343e-43,21.663500000000003,21.663500000000003,1.9210229930283034e-22,1.2667937136052526e-24,1.2667937136052526e-24,21.663500000000003,21.663500000000003,1.9210229930283034e-22,1.2667937136052526e-24,1.2667937136052526e-24,-3.457932410778053e-24,-3.457932410778053e-24
1762666247.833484,0.0,0.0,1.075,0.0,0.0,1.5,3.45792872834034e-24,0.0,0.0,-5.488637122937478e-24,-1.595489787679461e-29,0.0,6.701057108254384e-27,-2.305227591633964e-21,-4.4508729663500764e-42,0.0,0.0,0.0,5.488637122937479e-23,1.5954897877635704e-28,43.327000000000005,5.488637122937479e-23,1.498218375617807e-22,43.327000000000005,-1.729299417025583e-24,1.152613795816982e-22,2.225430304190343e-43,21.663500000000003,21.663500000000003,1.9210229930283034e-22,1.2667937136052526e-24,1.2667937136052526e-24,21.663500000000003,21.663500000000003,1.9210229930283034e-22,1.2667937136052526e-24,1.2667937136052526e-24,-3.457932410778053e-24,-3.457932410778053e-24
1762666247.8348877,0.0,0.0,1.075,0.0,0.0,1.5,3.45792872834034e-24,0.0,0.0,-5.488637122937478e-24,-1.595489787679461e-29,0.0,6.701057108254384e-27,-2.305227591633964e-21,-4.4508729663500764e-42,0.0,0.0,0.0,5.488637122937479e-23,1.5954897877635704e-28,43.327000000000005,5.488637122937479e-23,1.498218375617807e-22,43.327000000000005,-1.729299417025583e-24,1.152613795816982e-22,2.225430304190343e-43,21.663500000000003,21.663500000000003,1.9210229930283034e-22,1.2667937136052526e-24,1.2667937136052526e-24,21.663500000000003,21.663500000000003,1.9210229930283034e-22,1.2667937136052526e-24,1.2667937136052526e-24,-3.457932410778053e-24,-3.457932410778053e-24
1762666247.8362474,0.0,0.0,1.075,0.0,0.0,1.5,3.45792872834034e-24,0.0,0.0,-5.488637122937478e-24,-1.595489787679461e-29,0.0,6.701057108254384e-27,-2.305227591633964e-21,-4.4508729663500764e-42,0.0,0.0,0.0,5.488637122937479e-23,1.5954897877635704e-28,43.327000000000005,5.488637122937479e-23,1.498218375617807e-22,43.327000000000005,-1.729299417025583e-24,1.152613795816982e-22,2.225430304190343e-43,21.663500000000003,21.663500000000003,1.9210229930283034e-22,1.2667937136052526e-24,1.2667937136052526e-24,21.663500000000003,21.663500000000003,1.9210229930283034e-22,1.2667937136052526e-24,1.2667937136052526e-24,-3.457932410778053e-24,-3.457932410778053e-24
1762666247.8375092,0.0,0.0,1.075,0.0,0.0,1.5,3.45792872834034e-24,0.0,0.0,-5.488637122937478e-24,-1.595489787679461e-29,0.0,6.701057108254384e-27,-2.305227591633964e-21,-4.4508729663500764e-42,0.0,0.0,0.0,5.488637122937479e-23,1.5954897877635704e-28,43.327000000000005,5.488637122937479e-23,1.498218375617807e-22,43.327000000000005,-1.729299417025583e-24,1.152613795816982e-22,2.225430304190343e-43,21.663500000000003,21.663500000000003,1.9210229930283034e-22,1.2667937136052526e-24,1.2667937136052526e-24,21.663500000000003,21.663500000000003,1.9210229930283034e-22,1.2667937136052526e-24,1.2667937136052526e-24,-3.457932410778053e-24,-3.457932410778053e-24
1762666247.838779,0.0,0.0,1.075,0.0,0.0,1.5,3.45792872834034e-24,0.0,0.0,-5.488637122937478e-24,-1.595489787679461e-29,0.0,6.701057108254384e-27,-2.305227591633964e-21,-4.4508729663500764e-42,0.0,0.0,0.0,5.488637122937479e-23,1.5954897877635704e-28,43.327000000000005,5.488637122937479e-23,1.498218375617807e-22,43.327000000000005,-1.729299417025583e-24,1.152613795816982e-22,2.225430304190343e-43,21.663500000000003,21.663500000000003,1.9210229930283034e-22,1.2667937136052526e-24,1.2667937136052526e-24,21.663500000000003,21.663500000000003,1.9210229930283034e-22,1.2667937136052526e-24,1.2667937136052526e-24,-3.457932410778053e-24,-3.457932410778053e-24
1762666247.8400736,0.0,0.0,1.075,0.0,0.0,1.5,3.45792872834034e-24,0.0,0.0,-5.488637122937478e-24,-1.595489787679461e-29,0.0,6.701057108254384e-27,-2.305227591633964e-21,-4.4508729663500764e-42,0.0,0.0,0.0,5.488637122937479e-23,1.5954897877635704e-28,43.327000000000005,5.488637122937479e-23,1.498218375617807e-22,43.327000000000005,-1.729299417025583e-24,1.152613795816982e-22,2.225430304190343e-43,21.663500000000003,21.663500000000003,1.9210229930283034e-22,1.2667937136052526e-24,1.2667937136052526e-24,21.663500000000003,21.663500000000003,1.9210229930283034e-22,1.2667937136052526e-24,1.2667937136052526e-24,-3.457932410778053e-24,-3.457932410778053e-24
1762666247.8416035,0.0,0.0,1.075,0.0,0.0,1.5,6.147282974959671e-24,0.0,0.0,-7.317844693859337e-24,-4.4366583849041824e-29,0.0,1.863396521659937e-26,-3.073494771421219e-21,-5.856123957698187e-42,0.0,0.0,0.0,5.488637122937479e-23,1.5954897877635704e-28,43.327000000000005,5.488637122937479e-23,1.498218375617807e-22,43.327000000000005,-1.729299417025583e-24,1.152613795816982e-22,2.225430304190343e-43,21.663500000000003,21.663500000000003,1.9210229930283034e-22,1.2667937136052526e-24,1.2667937136052526e-24,21.663500000000003,21.663500000000003,1.9210229930283034e-22,1.2667937136052526e-24,1.2667937136052526e-24,-3.457932410778053e-24,-3.457932410778053e-24
1762666247.843076,0.0,0.0,1.075,0.0,0.0,1.5,6.147282974959671e-24,0.0,0.0,-7.317844693859337e-24,-4.4366583849041824e-29,0.0,1.863396521659937e-26,-3.073494771421219e-21,-5.856123957698187e-42,0.0,0.0,0.0,7.317844693859337e-23,4.436658384822028e-28,43.327000000000005,7.317844693859337e-23,2.663437731219162e-22,43.327000000000005,-3.0745731857406656e-24,1.5367473857106095e-22,2.9280390702912283e-43,21.663500000000003,21.663500000000003,2.561245642851016e-22,1.6889802418490403e-24,1.6889802418490403e-24,21.663500000000003,21.663500000000003,2.561245642851016e-22,1.6889802418490403e-24,1.6889802418490403e-24,-6.147293214898704e-24,-6.147293214898704e-24
1762666247.84446,0.0,0.0,1.075,0.0,0.0,1.5,6.147282974959671e-24,0.0,0.0,-7.317844693859337e-24,-4.4366583849041824e-29,0.0,1.863396521659937e-26,-3.073494771421219e-21,-5.856123957698187e-42,0.0,0.0,0.0,7.317844693859337e-23,4.436658384822028e-28,43.327000000000005,7.317844693859337e-23,2.663437731219162e-22,43.327000000000005,-3.0745731857406656e-24,1.5367473857106095e-22,2.9280390702912283e-43,21.663500000000003,21.663500000000003,2.561245642851016e-22,1.6889802418490403e-24,1.6889802418490403e-24,21.663500000000003,21.663500000000003,2.561245642851016e-22,1.6889802418490403e-24,1.6889802418490403e-24,-6.147293214898704e-24,-6.147293214898704e-24
1762666247.8457682,0.0,0.0,1.075,0.0,0.0,1.5,6.147282974959671e-24,0.0,0.0,-7.317844693859337e-24,-4.4366583849041824e-29,0.0,1.863396521659937e-26,-3.073494771421219e-21,-5.856123957698187e-42,0.0,0.0,0.0,7.317844693859337e-23,4.436658384822028e-28,43.327000000000005,7.317844693859337e-23,2.663437731219162e-22,43.327000000000005,-3.0745731857406656e-24,1.5367473857106095e-22,2.9280390702912283e-43,21.663500000000003,21.663500000000003,2.561245642851016e-22,1.6889802418490403e-24,1.6889802418490403e-24,21.663500000000003,21.663500000000003,2.561245642851016e-22,1.6889802418490403e-24,1.6889802418490403e-24,-6.147293214898704e-24,-6.147293214898704e-24
1762666247.8470552,0.0,0.0,1.075,0.0,0.0,1.5,6.147282974959671e-24,0.0,0.0,-7.317844693859337e-24,-4.4366583849041824e-29,0.0,1.863396521659937e-26,-3.073494771421219e-21,-5.856123957698187e-42,0.0,0.0,0.0,7.317844693859337e-23,4.436658384822028e-28,43.327000000000005,7.317844693859337e-23,2.663437731219162e-22,43.327000000000005,-3.0745731857406656e-24,1.5367473857106095e-22,2.9280390702912283e-43,21.663500000000003,21.663500000000003,2.561245642851016e-22,1.6889802418490403e-24,1.6889802418490403e-24,21.663500000000003,21.663500000000003,2.561245642851016e-22,1.6889802418490403e-24,1.6889802418490403e-24,-6.147293214898704e-24,-6.147293214898704e-24
1762666247.8482637,0.0,0.0,1.075,0.0,0.0,1.5,6.147282974959671e-24,0.0,0.0,-7.317844693859337e-24,-4.4366583849041824e-29,0.0,1.863396521659937e-26,-3.073494771421219e-21,-5.856123957698187e-42,0.0,0.0,0.0,7.317844693859337e-23,4.436658384822028e-28,43.327000000000005,7.317844693859337e-23,2.663437731219162e-22,43.327000000000005,-3.0745731857406656e-24,1.5367473857106095e-22,2.9280390702912283e-43,21.663500000000003,21.663500000000003,2.561245642851016e-22,1.6889802418490403e-24,1.6889802418490403e-24,21.663500000000003,21.663500000000003,2.561245642851016e-22,1.6889802418490403e-24,1.6889802418490403e-24,-6.147293214898704e-24,-6.147293214898704e-24
1762666247.8495882,0.0,0.0,1.075,0.0,0.0,1.5,6.147282974959671e-24,0.0,0.0,-7.317844693859337e-24,-4.4366583849041824e-29,0.0,1.863396521659937e-26,-3.073494771421219e-21,-5.856123957698187e-42,0.0,0.0,0.0,7.317844693859337e-23,4.436658384822028e-28,43.327000000000005,7.317844693859337e-23,2.663437731219162e-22,43.327000000000005,-3.0745731857406656e-24,1.5367473857106095e-22,2.9280390702912283e-43,21.663500000000003,21.663500000000003,2.561245642851016e-22,1.6889802418490403e-24,1.6889802418490403e-24,21.663500000000003,21.663500000000003,2.561245642851016e-22,1.6889802418490403e-24,1.6889802418490403e-24,-6.147293214898704e-24,-6.147293214898704e-24
1762666247.851032,0.0,0.0,1.075,0.0,0.0,1.5,6.147282974959671e-24,0.0,0.0,-7.317844693859337e-24,-4.4366583849041824e-29,0.0,1.863396521659937e-26,-3.073494771421219e-21,-5.856123957698187e-42,0.0,0.0,0.0,7.317844693859337e-23,4.436658384822028e-28,43.327000000000005,7.317844693859337e-23,2.663437731219162e-22,43.327000000000005,-3.0745731857406656e-24,1.5367473857106095e-22,2.9280390702912283e-43,21.663500000000003,21.663500000000003,2.561245642851016e-22,1.6889802418490403e-24,1.6889802418490403e-24,21.663500000000003,21.663500000000003,2.561245642851016e-22,1.6889802418490403e-24,1.6889802418490403e-24,-6.147293214898704e-24,-6.147293214898704e-24
1762666247.8524084,0.0,0.0,1.075,0.0,0.0,1.5,6.147282974959671e-24,0.0,0.0,-7.317844693859337e-24,-4.4366583849041824e-29,0.0,1.863396521659937e-26,-3.073494771421219e-21,-5.856123957698187e-42,0.0,0.0,0.0,7.317844693859337e-23,4.436658384822028e-28,43.327000000000005,7.317844693859337e-23,2.663437731219162e-22,43.327000000000005,-3.0745731857406656e-24,1.5367473857106095e-22,2.9280390702912283e-43,21.663500000000003,21.663500000000003,2.561245642851016e-22,1.6889802418490403e-24,1.6889802418490403e-24,21.663500000000003,21.663500000000003,2.561245642851016e-22,1.6889802418490403e-24,1.6889802418490403e-24,-6.147293214898704e-24,-6.147293214898704e-24
1762666247.8536744,0.0,0.0,1.075,0.0,0.0,1.5,6.147282974959671e-24,0.0,0.0,-7.317844693859337e-24,-4.4366583849041824e-29,0.0,1.863396521659937e-26,-3.073494771421219e-21,-5.856123957698187e-42,0.0,0.0,0.0,7.317844693859337e-23,4.436658384822028e-28,43.327000000000005,7.317844693859337e-23,2.663437731219162e-22,43.327000000000005,-3.0745731857406656e-24,1.5367473857106095e-22,2.9280390702912283e-43,21.663500000000003,21.663500000000003,2.561245642851016e-22,1.6889802418490403e-24,1.6889802418490403e-24,21.663500000000003,21.663500000000003,2.561245642851016e-22,1.6889802418490403e-24,1.6889802418490403e-24,-6.147293214898704e-24,-6.147293214898704e-24
1762666247.8549676,0.0,0.0,1.075,0.0,0.0,1.5,6.147282974959671e-24,0.0,0.0,-7.317844693859337e-24,-4.4366583849041824e-29,0.0,1.863396521659937e-26,-3.073494771421219e-21,-5.856123957698187e-42,0.0,0.0,0.0,7.317844693859337e-23,4.436658384822028e-28,43.327000000000005,7.317844693859337e-23,2.663437731219162e-22,43.327000000000005,-3.0745731857406656e-24,1.5367473857106095e-22,2.9280390702912283e-43,21.663500000000003,21.663500000000003,2.561245642851016e-22,1.6889802418490403e-24,1.6889802418490403e-24,21.663500000000003,21.663500000000003,2.561245642851016e-22,1.6889802418490403e-24,1.6889802418490403e-24,-6.147293214898704e-24,-6.147293214898704e-24
