timestamp,pos_x,pos_y,pos_z,target_x,target_y,target_z,roll,pitch,yaw,vel_x,vel_y,vel_z,angular_vel_x,angular_vel_y,angular_vel_z,accel_x,accel_y,accel_z,f_world_x,f_world_y,f_world_z,f_body_x,f_body_y,f_body_z,tau_x,tau_y,tau_z,u1,u2,u3,u4,u5,T12,T34,T5,alpha1,alpha2theta1,theta2
1762671452.416712,0.0,0.0,0.075,5.0,0.0,1.5,0.0,0.0,0.0,0.0,0.0,0.0,0.0,0.0,0.0,0.0,0.0,0.0,0.0,0.0,0.0,0.0,0.0,0.0,0.0,0.0,0.0,0.0,0.0,0.0,0.0,0.0,0.0,0.0,0.0,0.0,0.0,0.0,0.0
1762671452.4186091,0.0,0.0,0.075,5.0,0.0,1.5,0.0,0.0,0.0,0.0,0.0,0.0,0.0,0.0,0.0,0.0,0.0,0.0,25.0,0.0,48.327000000000005,25.0,0.0,48.327000000000005,0.0,0.0,0.0,27.205233545220672,27.205233545220672,0.0,0.4773988588211861,0.4773988588211861,27.205233545220672,27.205233545220672,0.0,0.4773988588211861,0.4773988588211861,-0.0,-0.0
1762671452.4204593,0.0,0.0,0.075,5.0,0.0,1.5,0.0,0.0,0.0,0.0,0.0,0.0,0.0,0.0,0.0,0.0,0.0,0.0,25.0,0.0,48.327000000000005,25.0,0.0,48.327000000000005,0.0,0.0,0.0,27.205233545220672,27.205233545220672,0.0,0.4773988588211861,0.4773988588211861,27.205233545220672,27.205233545220672,0.0,0.4773988588211861,0.4773988588211861,-0.0,-0.0
1762671452.4224262,-5.402930890497663e-09,6.073204878612689e-22,0.07509282691237765,5.0,0.0,1.5,-5.48281871056059e-21,-4.873876209606065e-08,-3.720427065451724e-21,-1.1068732800337915e-05,-8.096510078689288e-18,0.18606029659959447,7.154979078232826e-17,-9.776727173042142e-05,-2.441801338485124e-17,0.0,0.0,0.0,25.0,0.0,48.327000000000005,25.0,0.0,48.327000000000005,0.0,0.0,0.0,27.205233545220672,27.205233545220672,0.0,0.4773988588211861,0.4773988588211861,27.205233545220672,27.205233545220672,0.0,0.4773988588211861,0.4773988588211861,-0.0,-0.0
1762671452.4241595,-5.402930890497663e-09,6.073204878612689e-22,0.07509282691237765,5.0,0.0,1.5,-5.48281871056059e-21,-4.873876209606065e-08,-3.720427065451724e-21,-1.1068732800337915e-05,-8.096510078689288e-18,0.18606029659959447,7.154979078232826e-17,-9.776727173042142e-05,-2.441801338485124e-17,0.0,0.0,0.0,25.000110714342654,8.096206418445357e-17,46.465932899442166,25.000112979034675,8.080031099337045e-17,46.465931680967664,-3.574795875366795e-18,4.912732967569101e-06,1.2224810737285875e-18,26.38222742221174,26.38222742221174,8.187888279281835e-06,0.4936076379490428,0.4936076379490428,26.38222742221174,26.38222742221174,8.187888279281835e-06,0.4936076379490428,0.4936076379490428,-1.5313398239707201e-18,-1.5313398239707201e-18
1762671452.4258265,-5.402930890497663e-09,6.073204878612689e-22,0.07509282691237765,5.0,0.0,1.5,-5.48281871056059e-21,-4.873876209606065e-08,-3.720427065451724e-21,-1.1068732800337915e-05,-8.096510078689288e-18,0.18606029659959447,7.154979078232826e-17,-9.776727173042142e-05,-2.441801338485124e-17,0.0,0.0,0.0,25.000110714342654,8.096206418445357e-17,46.465932899442166,25.000112979034675,8.080031099337045e-17,46.465931680967664,-3.574795875366795e-18,4.912732967569101e-06,1.2224810737285875e-18,26.38222742221174,26.38222742221174,8.187888279281835e-06,0.4936076379490428,0.4936076379490428,26.38222742221174,26.38222742221174,8.187888279281835e-06,0.4936076379490428,0.4936076379490428,-1.5313398239707201e-18,-1.5313398239707201e-18
1762671452.4277217,-2.124764614853487e-08,3.3054808918941047e-21,0.07536390347880727,5.0,0.0,1.5,-3.183271114308038e-20,-1.9164397128855725e-07,2.91114542473338e-20,-2.107345328941657e-05,9.877537911461697e-19,0.3530656947693928,-7.980494730724232e-18,-0.00018601971834403716,9.47612109667091e-17,0.0,0.0,0.0,25.000110714342654,8.096206418445357e-17,46.465932899442166,25.000112979034675,8.080031099337045e-17,46.465931680967664,-3.574795875366795e-18,4.912732967569101e-06,1.2224810737285875e-18,26.38222742221174,26.38222742221174,8.187888279281835e-06,0.4936076379490428,0.4936076379490428,26.38222742221174,26.38222742221174,8.187888279281835e-06,0.4936076379490428,0.4936076379490428,-1.5313398239707201e-18,-1.5313398239707201e-18
1762671452.4294376,-2.124764614853487e-08,3.3054808918941047e-21,0.07536390347880727,5.0,0.0,1.5,-3.183271114308038e-20,-1.9164397128855725e-07,2.91114542473338e-20,-2.107345328941657e-05,9.877537911461697e-19,0.3530656947693928,-7.980494730724232e-18,-0.00018601971834403716,9.47612109667091e-17,0.0,0.0,0.0,25.000210840771132,-9.894065315921167e-18,44.79452353491205,25.000219425371053,-1.2047788785949752e-17,44.79451874377154,4.1529363978847234e-19,9.396807902846136e-06,-4.752556892758704e-18,25.649359045198803,25.649359045198803,1.566134650474356e-05,0.5090476759256796,0.5090476759256796,25.649359045198803,25.649359045198803,1.566134650474356e-05,0.5090476759256796,0.5090476759256796,2.348555526225699e-19,2.348555526225699e-19
1762671452.4313865,-2.124764614853487e-08,3.3054808918941047e-21,0.07536390347880727,5.0,0.0,1.5,-3.183271114308038e-20,-1.9164397128855725e-07,2.91114542473338e-20,-2.107345328941657e-05,9.877537911461697e-19,0.3530656947693928,-7.980494730724232e-18,-0.00018601971834403716,9.47612109667091e-17,0.0,0.0,0.0,25.000210840771132,-9.894065315921167e-18,44.79452353491205,25.000219425371053,-1.2047788785949752e-17,44.79451874377154,4.1529363978847234e-19,9.396807902846136e-06,-4.752556892758704e-18,25.649359045198803,25.649359045198803,1.566134650474356e-05,0.5090476759256796,0.5090476759256796,25.649359045198803,25.649359045198803,1.566134650474356e-05,0.5090476759256796,0.5090476759256796,2.348555526225699e-19,2.348555526225699e-19
1762671452.433294,-4.6389115204764484e-08,7.592985791595758e-21,0.07579314655785403,5.0,0.0,1.5,-4.68539445595162e-20,-4.182757033665373e-07,2.924294607850924e-19,-3.007099620386121e-05,-1.8919934058870637e-18,0.5026282664345545,-1.1731697569842171e-17,-0.0002653187669773288,4.757139455391013e-16,0.0,0.0,0.0,25.000210840771132,-9.894065315921167e-18,44.79452353491205,25.000219425371053,-1.2047788785949752e-17,44.79451874377154,4.1529363978847234e-19,9.396807902846136e-06,-4.752556892758704e-18,25.649359045198803,25.649359045198803,1.566134650474356e-05,0.5090476759256796,0.5090476759256796,25.649359045198803,25.649359045198803,1.566134650474356e-05,0.5090476759256796,0.5090476759256796,2.348555526225699e-19,2.348555526225699e-19
1762671452.4350245,-4.6389115204764484e-08,7.592985791595758e-21,0.07579314655785403,5.0,0.0,1.5,-4.68539445595162e-20,-4.182757033665373e-07,2.924294607850924e-19,-3.007099620386121e-05,-1.8919934058870637e-18,0.5026282664345545,-1.1731697569842171e-17,-0.0002653187669773288,4.757139455391013e-16,0.0,0.0,0.0,25.000300941907607,1.8881969129912658e-17,43.29675160286519,25.000319051884652,9.542521496750529e-18,43.296741145842944,6.125361369421181e-19,1.3475076200549704e-05,-2.3931787496866786e-17,24.99810893742951,24.99810893742951,2.2458460334249507e-05,0.5236498206186321,0.5236498206186321,24.99810893742951,24.99810893742951,2.2458460334249507e-05,0.5236498206186321,0.5236498206186321,-1.908648674312834e-19,-1.908648674312834e-19
1762671452.4366121,-4.6389115204764484e-08,7.592985791595758e-21,0.07579314655785403,5.0,0.0,1.5,-4.68539445595162e-20,-4.182757033665373e-07,2.924294607850924e-19,-3.007099620386121e-05,-1.8919934058870637e-18,0.5026282664345545,-1.1731697569842171e-17,-0.0002653187669773288,4.757139455391013e-16,0.0,0.0,0.0,25.000300941907607,1.8881969129912658e-17,43.29675160286519,25.000319051884652,9.542521496750529e-18,43.296741145842944,6.125361369421181e-19,1.3475076200549704e-05,-2.3931787496866786e-17,24.99810893742951,24.99810893742951,2.2458460334249507e-05,0.5236498206186321,0.5236498206186321,24.99810893742951,24.99810893742951,2.2458460334249507e-05,0.5236498206186321,0.5236498206186321,-1.908648674312834e-19,-1.908648674312834e-19
1762671452.4382808,-7.986258042215825e-08,6.766141320745208e-21,0.0763638013236184,5.0,0.0,1.5,-6.158271624114708e-20,-7.198966834090638e-07,9.760116740048273e-19,-3.8104327205056405e-05,4.073314216204079e-18,0.6361076274046188,-1.1223027529110554e-17,-0.0003360941492548463,8.842938175093568e-16,0.0,0.0,0.0,25.000300941907607,1.8881969129912658e-17,43.29675160286519,25.000319051884652,9.542521496750529e-18,43.296741145842944,6.125361369421181e-19,1.3475076200549704e-05,-2.3931787496866786e-17,24.99810893742951,24.99810893742951,2.2458460334249507e-05,0.5236498206186321,0.5236498206186321,24.99810893742951,24.99810893742951,2.2458460334249507e-05,0.5236498206186321,0.5236498206186321,-1.908648674312834e-19,-1.908648674312834e-19
1762671452.4398756,-7.986258042215825e-08,6.766141320745208e-21,0.0763638013236184,5.0,0.0,1.5,-6.158271624114708e-20,-7.198966834090638e-07,9.760116740048273e-19,-3.8104327205056405e-05,4.073314216204079e-18,0.6361076274046188,-1.1223027529110554e-17,-0.0003360941492548463,8.842938175093568e-16,0.0,0.0,0.0,25.000381442584956,-4.076697286864451e-17,41.95910471933572,25.000411648798803,-6.775159154249709e-17,41.95908672163316,5.978866784849481e-19,1.7164655804446813e-05,-4.470254582163132e-17,24.421215880934387,24.421215880934387,2.8607759674078024e-05,0.537346733347645,0.537346733347645,24.421215880934387,24.421215880934387,2.8607759674078024e-05,0.537346733347645,0.537346733347645,1.387146157521802e-18,1.387146157521802e-18
1762671452.4412997,-7.986258042215825e-08,6.766141320745208e-21,0.0763638013236184,5.0,0.0,1.5,-6.158271624114708e-20,-7.198966834090638e-07,9.760116740048273e-19,-3.8104327205056405e-05,4.073314216204079e-18,0.6361076274046188,-1.1223027529110554e-17,-0.0003360941492548463,8.842938175093568e-16,0.0,0.0,0.0,25.000381442584956,-4.076697286864451e-17,41.95910471933572,25.000411648798803,-6.775159154249709e-17,41.95908672163316,5.978866784849481e-19,1.7164655804446813e-05,-4.470254582163132e-17,24.421215880934387,24.421215880934387,2.8607759674078024e-05,0.537346733347645,0.537346733347645,24.421215880934387,24.421215880934387,2.8607759674078024e-05,0.537346733347645,0.537346733347645,1.387146157521802e-18,1.387146157521802e-18
1762671452.4428127,-1.2074373337896823e-07,8.73319781532937e-21,0.0770604245190802,5.0,0.0,1.5,-8.197921553059032e-20,-1.0881857627090877e-06,2.0965508227901173e-18,-4.521335789886756e-05,-1.5863791203083325e-18,0.7547683833855905,-2.4988278232060204e-17,-0.0003987486359954387,1.325157339794981e-15,0.0,0.0,0.0,25.000381442584956,-4.076697286864451e-17,41.95910471933572,25.000411648798803,-6.775159154249709e-17,41.95908672163316,5.978866784849481e-19,1.7164655804446813e-05,-4.470254582163132e-17,24.421215880934387,24.421215880934387,2.8607759674078024e-05,0.537346733347645,0.537346733347645,24.421215880934387,24.421215880934387,2.8607759674078024e-05,0.537346733347645,0.537346733347645,1.387146157521802e-18,1.387146157521802e-18
1762671452.4442785,-1.2074373337896823e-07,8.73319781532937e-21,0.0770604245190802,5.0,0.0,1.5,-8.197921553059032e-20,-1.0881857627090877e-06,2.0965508227901173e-18,-4.521335789886756e-05,-1.5863791203083325e-18,0.7547683833855905,-2.4988278232060204e-17,-0.0003987486359954387,1.325157339794981e-15,0.0,0.0,0.0,25.00045273729766,1.582012521400669e-17,40.7690140435487,25.0004971015435,-3.993680410148815e-17,40.76898683838783,1.300971042643556e-18,2.0481524681126372e-05,-6.730574381716721e-17,23.911986323725056,23.911986323725056,3.4135874468543954e-05,0.5500862732232044,0.5500862732232044,23.911986323725056,23.911986323725056,3.4135874468543954e-05,0.5500862732232044,0.5500862732232044,8.350791849914941e-19,8.350791849914941e-19
1762671452.4458618,-1.2074373337896823e-07,8.73319781532937e-21,0.0770604245190802,5.0,0.0,1.5,-8.197921553059032e-20,-1.0881857627090877e-06,2.0965508227901173e-18,-4.521335789886756e-05,-1.5863791203083325e-18,0.7547683833855905,-2.4988278232060204e-17,-0.0003987486359954387,1.325157339794981e-15,0.0,0.0,0.0,25.00045273729766,1.582012521400669e-17,40.7690140435487,25.0004971015435,-3.993680410148815e-17,40.76898683838783,1.300971042643556e-18,2.0481524681126372e-05,-6.730574381716721e-17,23.911986323725056,23.911986323725056,3.4135874468543954e-05,0.5500862732232044,0.5500862732232044,23.911986323725056,23.911986323725056,3.4135874468543954e-05,0.5500862732232044,0.5500862732232044,8.350791849914941e-19,8.350791849914941e-19
1762671452.4476066,-1.6814584617781072e-07,6.815700909572456e-21,0.07786879262614727,5.0,0.0,1.5,-8.766092103165221e-20,-1.515213095181087e-06,3.6948429471602565e-18,-5.1435210387133745e-05,-3.0600540344316732e-18,0.8597864206601631,-2.1310270142374144e-18,-0.0004536622985783329,1.865493856739367e-15,0.0,0.0,0.0,25.00045273729766,1.582012521400669e-17,40.7690140435487,25.0004971015435,-3.993680410148815e-17,40.76898683838783,1.300971042643556e-18,2.0481524681126372e-05,-6.730574381716721e-17,23.911986323725056,23.911986323725056,3.4135874468543954e-05,0.5500862732232044,0.5500862732232044,23.911986323725056,23.911986323725056,3.4135874468543954e-05,0.5500862732232044,0.5500862732232044,8.350791849914941e-19,8.350791849914941e-19
1762671452.4491787,-1.6814584617781072e-07,6.815700909572456e-21,0.07786879262614727,5.0,0.0,1.5,-8.766092103165221e-20,-1.515213095181087e-06,3.6948429471602565e-18,-5.1435210387133745e-05,-3.0600540344316732e-18,0.8597864206601631,-2.1310270142374144e-18,-0.0004536622985783329,1.865493856739367e-15,0.0,0.0,0.0,25.000515192833102,3.0566461839768873e-17,39.71479183026764,25.000575369177056,-6.528794730556813e-17,39.71475394911405,1.673064962297099e-19,2.34407214765069e-05,-9.512207560667662e-17,23.46426723173174,23.46426723173174,3.90678691275115e-05,0.5618316555071962,0.5618316555071962,23.46426723173174,23.46426723173174,3.90678691275115e-05,0.5618316555071962,0.5618316555071962,1.3912206731364794e-18,1.3912206731364794e-18
1762671452.4505901,-1.6814584617781072e-07,6.815700909572456e-21,0.07786879262614727,5.0,0.0,1.5,-8.766092103165221e-20,-1.515213095181087e-06,3.6948429471602565e-18,-5.1435210387133745e-05,-3.0600540344316732e-18,0.8597864206601631,-2.1310270142374144e-18,-0.0004536622985783329,1.865493856739367e-15,0.0,0.0,0.0,25.000515192833102,3.0566461839768873e-17,39.71479183026764,25.000575369177056,-6.528794730556813e-17,39.71475394911405,1.673064962297099e-19,2.34407214765069e-05,-9.512207560667662e-17,23.46426723173174,23.46426723173174,3.90678691275115e-05,0.5618316555071962,0.5618316555071962,23.46426723173174,23.46426723173174,3.90678691275115e-05,0.5618316555071962,0.5618316555071962,1.3912206731364794e-18,1.3912206731364794e-18
1762671452.4522145,-2.2121718457416596e-07,3.6133898073560225e-21,0.078775816122116,5.0,0.0,1.5,-9.708643151318515e-20,-1.9934194272843796e-06,5.843427999135747e-18,-5.680452872168179e-05,-6.578331290398919e-18,0.952254792664254,1.0968711530865868e-17,-0.00050119643505743,2.4428676725047144e-15,0.0,0.0,0.0,25.000515192833102,3.0566461839768873e-17,39.71479183026764,25.000575369177056,-6.528794730556813e-17,39.71475394911405,1.673064962297099e-19,2.34407214765069e-05,-9.512207560667662e-17,23.46426723173174,23.46426723173174,3.90678691275115e-05,0.5618316555071962,0.5618316555071962,23.46426723173174,23.46426723173174,3.90678691275115e-05,0.5618316555071962,0.5618316555071962,1.3912206731364794e-18,1.3912206731364794e-18
1762671452.4536889,-2.2121718457416596e-07,3.6133898073560225e-21,0.078775816122116,5.0,0.0,1.5,-9.708643151318515e-20,-1.9934194272843796e-06,5.843427999135747e-18,-5.680452872168179e-05,-6.578331290398919e-18,0.952254792664254,1.0968711530865868e-17,-0.00050119643505743,2.4428676725047144e-15,0.0,0.0,0.0,25.00056915137314,6.57652459549524e-17,38.785572992746886,25.00064646723817,-8.40893278561037e-17,38.785523156049585,-4.754081415119448e-19,2.6056531466513033e-05,-1.2506531747558185e-16,23.072417306978757,23.072417306978757,4.3427552444188393e-05,0.5725610858424223,0.5725610858424223,23.072417306978757,23.072417306978757,4.3427552444188393e-05,0.5725610858424223,0.5725610858424223,1.822291239303067e-18,1.822291239303067e-18
1762671452.455155,-2.2121718457416596e-07,3.6133898073560225e-21,0.078775816122116,5.0,0.0,1.5,-9.708643151318515e-20,-1.9934194272843796e-06,5.843427999135747e-18,-5.680452872168179e-05,-6.578331290398919e-18,0.952254792664254,1.0968711530865868e-17,-0.00050119643505743,2.4428676725047144e-15,0.0,0.0,0.0,25.00056915137314,6.57652459549524e-17,38.785572992746886,25.00064646723817,-8.40893278561037e-17,38.785523156049585,-4.754081415119448e-19,2.6056531466513033e-05,-1.2506531747558185e-16,23.072417306978757,23.072417306978757,4.3427552444188393e-05,0.5725610858424223,0.5725610858424223,23.072417306978757,23.072417306978757,4.3427552444188393e-05,0.5725610858424223,0.5725610858424223,1.822291239303067e-18,1.822291239303067e-18
1762671452.4567642,-2.791387389779074e-07,-2.3382426167919897e-21,0.07976945943133977,5.0,0.0,1.5,-9.113437933694869e-20,-2.5155991328254534e-06,8.593794821545848e-18,-6.135381762271966e-05,-2.3164000655193304e-18,1.0331892279410766,-5.135554255983934e-18,-0.0005416971257145957,3.124694018689689e-15,0.0,0.0,0.0,25.00056915137314,6.57652459549524e-17,38.785572992746886,25.00064646723817,-8.40893278561037e-17,38.785523156049585,-4.754081415119448e-19,2.6056531466513033e-05,-1.2506531747558185e-16,23.072417306978757,23.072417306978757,4.3427552444188393e-05,0.5725610858424223,0.5725610858424223,23.072417306978757,23.072417306978757,4.3427552444188393e-05,0.5725610858424223,0.5725610858424223,1.822291239303067e-18,1.822291239303067e-18
1762671452.4582012,-2.791387389779074e-07,-2.3382426167919897e-21,0.07976945943133977,5.0,0.0,1.5,-9.113437933694869e-20,-2.5155991328254534e-06,8.593794821545848e-18,-6.135381762271966e-05,-2.3164000655193304e-18,1.0331892279410766,-5.135554255983934e-18,-0.0005416971257145957,3.124694018689689e-15,0.0,0.0,0.0,25.000614933869922,2.3175691868277205e-17,37.97126042343254,25.00071045426061,-1.95134944805616e-16,37.97119753178715,3.3619225320513465e-19,2.8342655852141185e-05,-1.60531487011337e-16,22.73127678920276,22.73127678920276,4.7237759753568647e-05,0.5822669500027025,0.5822669500027025,22.73127678920276,22.73127678920276,4.7237759753568647e-05,0.5822669500027025,0.5822669500027025,4.292212589182498e-18,4.292212589182498e-18
1762671452.4595766,-2.791387389779074e-07,-2.3382426167919897e-21,0.07976945943133977,5.0,0.0,1.5,-9.113437933694869e-20,-2.5155991328254534e-06,8.593794821545848e-18,-6.135381762271966e-05,-2.3164000655193304e-18,1.0331892279410766,-5.135554255983934e-18,-0.0005416971257145957,3.124694018689689e-15,0.0,0.0,0.0,25.000614933869922,2.3175691868277205e-17,37.97126042343254,25.00071045426061,-1.95134944805616e-16,37.97119753178715,3.3619225320513465e-19,2.8342655852141185e-05,-1.60531487011337e-16,22.73127678920276,22.73127678920276,4.7237759753568647e-05,0.5822669500027025,0.5822669500027025,22.73127678920276,22.73127678920276,4.7237759753568647e-05,0.5822669500027025,0.5822669500027025,4.292212589182498e-18,4.292212589182498e-18
1762671452.4611204,-3.411222886799743e-07,-5.859267530207376e-21,0.08083866620555902,5.0,0.0,1.5,-9.601834214102798e-20,-3.07488657095508e-06,1.201284318276898e-17,-6.511378434854682e-05,-6.94854409394092e-19,1.1035332833676363,-9.09648588680098e-19,-0.000575498327830118,3.67712645464884e-15,0.0,0.0,0.0,25.000614933869922,2.3175691868277205e-17,37.97126042343254,25.00071045426061,-1.95134944805616e-16,37.97119753178715,3.3619225320513465e-19,2.8342655852141185e-05,-1.60531487011337e-16,22.73127678920276,22.73127678920276,4.7237759753568647e-05,0.5822669500027025,0.5822669500027025,22.73127678920276,22.73127678920276,4.7237759753568647e-05,0.5822669500027025,0.5822669500027025,4.292212589182498e-18,4.292212589182498e-18
1762671452.4625897,-3.411222886799743e-07,-5.859267530207376e-21,0.08083866620555902,5.0,0.0,1.5,-9.601834214102798e-20,-3.07488657095508e-06,1.201284318276898e-17,-6.511378434854682e-05,-6.94854409394092e-19,1.1035332833676363,-9.09648588680098e-19,-0.000575498327830118,3.67712645464884e-15,0.0,0.0,0.0,25.00065284345493,6.977840431592012e-18,37.26247383529584,25.000767421217134,-2.9692895522407053e-16,37.26239696094799,1.3580596848926592e-19,3.031235967698102e-05,-1.8986272330995125e-16,22.436136219781396,22.436136219781396,5.052059946163503e-05,0.5909546537651514,0.5909546537651514,22.436136219781396,22.436136219781396,5.052059946163503e-05,0.5909546537651514,0.5909546537651514,6.617203432787939e-18,6.617203432787939e-18
1762671452.4640596,-3.411222886799743e-07,-5.859267530207376e-21,0.08083866620555902,5.0,0.0,1.5,-9.601834214102798e-20,-3.07488657095508e-06,1.201284318276898e-17,-6.511378434854682e-05,-6.94854409394092e-19,1.1035332833676363,-9.09648588680098e-19,-0.000575498327830118,3.67712645464884e-15,0.0,0.0,0.0,25.00065284345493,6.977840431592012e-18,37.26247383529584,25.000767421217134,-2.9692895522407053e-16,37.26239696094799,1.3580596848926592e-19,3.031235967698102e-05,-1.8986272330995125e-16,22.436136219781396,22.436136219781396,5.052059946163503e-05,0.5909546537651514,0.5909546537651514,22.436136219781396,22.436136219781396,5.052059946163503e-05,0.5909546537651514,0.5909546537651514,6.617203432787939e-18,6.617203432787939e-18
1762671452.469077,-4.0640879483487534e-07,-1.0177786918168281e-20,0.08197328958948802,5.0,0.0,1.5,-8.786054503939295e-20,-3.6647452851739735e-06,1.604560778943786e-17,-6.811366691153263e-05,-5.350622346019058e-18,1.1641631650591768,-4.476545779245957e-18,-0.0006029244704698633,4.321488367120337e-15,0.0,0.0,0.0,25.00065284345493,6.977840431592012e-18,37.26247383529584,25.000767421217134,-2.9692895522407053e-16,37.26239696094799,1.3580596848926592e-19,3.031235967698102e-05,-1.8986272330995125e-16,22.436136219781396,22.436136219781396,5.052059946163503e-05,0.5909546537651514,0.5909546537651514,22.436136219781396,22.436136219781396,5.052059946163503e-05,0.5909546537651514,0.5909546537651514,6.617203432787939e-18,6.617203432787939e-18
1762671452.4706752,-4.0640879483487534e-07,-1.0177786918168281e-20,0.08197328958948802,5.0,0.0,1.5,-8.786054503939295e-20,-3.6647452851739735e-06,1.604560778943786e-17,-6.811366691153263e-05,-5.350622346019058e-18,1.1641631650591768,-4.476545779245957e-18,-0.0006029244704698633,4.321488367120337e-15,0.0,0.0,0.0,25.000683168713092,5.355711239478141e-17,36.65050190146079,25.000817483299247,-3.508141692215144e-16,36.65041028007891,3.1985348242322734e-19,3.197859616607605e-05,-2.2409711420945247e-16,22.182704646705975,22.182704646705975,5.329766027679342e-05,0.5986412124659569,0.5986412124659569,22.182704646705975,22.182704646705975,5.329766027679342e-05,0.5986412124659569,0.5986412124659569,7.907380430131828e-18,7.907380430131828e-18
1762671452.4722548,-4.0640879483487534e-07,-1.0177786918168281e-20,0.08197328958948802,5.0,0.0,1.5,-8.786054503939295e-20,-3.6647452851739735e-06,1.604560778943786e-17,-6.811366691153263e-05,-5.350622346019058e-18,1.1641631650591768,-4.476545779245957e-18,-0.0006029244704698633,4.321488367120337e-15,0.0,0.0,0.0,25.000683168713092,5.355711239478141e-17,36.65050190146079,25.000817483299247,-3.508141692215144e-16,36.65041028007891,3.1985348242322734e-19,3.197859616607605e-05,-2.2409711420945247e-16,22.182704646705975,22.182704646705975,5.329766027679342e-05,0.5986412124659569,0.5986412124659569,22.182704646705975,22.182704646705975,5.329766027679342e-05,0.5986412124659569,0.5986412124659569,7.907380430131828e-18,7.907380430131828e-18
1762671452.4740574,-4.742671026208442e-07,-1.6782015282246464e-20,0.08316402714995397,5.0,0.0,1.5,-9.77204150446975e-20,-4.278959530105101e-06,2.0717085317455567e-17,-7.038153477675259e-05,-3.691832289095238e-18,1.2158922379602897,-2.4089202232660298e-18,-0.0006242925240254227,5.004018674455431e-15,0.0,0.0,0.0,25.000683168713092,5.355711239478141e-17,36.65050190146079,25.000817483299247,-3.508141692215144e-16,36.65041028007891,3.1985348242322734e-19,3.197859616607605e-05,-2.2409711420945247e-16,22.182704646705975,22.182704646705975,5.329766027679342e-05,0.5986412124659569,0.5986412124659569,22.182704646705975,22.182704646705975,5.329766027679342e-05,0.5986412124659569,0.5986412124659569,7.907380430131828e-18,7.907380430131828e-18
1762671452.4755433,-4.742671026208442e-07,-1.6782015282246464e-20,0.08316402714995397,5.0,0.0,1.5,-9.77204150446975e-20,-4.278959530105101e-06,2.0717085317455567e-17,-7.038153477675259e-05,-3.691832289095238e-18,1.2158922379602897,-2.4089202232660298e-18,-0.0006242925240254227,5.004018674455431e-15,0.0,0.0,0.0,25.00070618668328,3.7002232967363536e-17,36.12725748464733,25.000860773527116,-4.844698902407495e-16,36.1271505073066,2.317634857639355e-19,3.335410596631716e-05,-2.6055941612208107e-16,21.967077790233084,21.967077790233084,5.5590176610528605e-05,0.6053536864357718,0.6053536864357718,21.967077790233084,21.967077790233084,5.5590176610528605e-05,0.6053536864357718,0.6053536864357718,1.1027181104082779e-17,1.1027181104082779e-17
1762671452.4770267,-4.742671026208442e-07,-1.6782015282246464e-20,0.08316402714995397,5.0,0.0,1.5,-9.77204150446975e-20,-4.278959530105101e-06,2.0717085317455567e-17,-7.038153477675259e-05,-3.691832289095238e-18,1.2158922379602897,-2.4089202232660298e-18,-0.0006242925240254227,5.004018674455431e-15,0.0,0.0,0.0,25.00070618668328,3.7002232967363536e-17,36.12725748464733,25.000860773527116,-4.844698902407495e-16,36.1271505073066,2.317634857639355e-19,3.335410596631716e-05,-2.6055941612208107e-16,21.967077790233084,21.967077790233084,5.5590176610528605e-05,0.6053536864357718,0.6053536864357718,21.967077790233084,21.967077790233084,5.5590176610528605e-05,0.6053536864357718,0.6053536864357718,1.1027181104082779e-17,1.1027181104082779e-17
1762671452.4786644,-5.43992923209647e-07,-1.5008116418299965e-20,0.08440236016722978,5.0,0.0,1.5,-1.0018534549726158e-19,-4.911627617167803e-06,2.6045264039738104e-17,-7.194455571880485e-05,-7.545814985221531e-18,1.2594752438211607,1.1221228624717872e-18,-0.0006399135733459666,5.634196030720564e-15,0.0,0.0,0.0,25.00070618668328,3.7002232967363536e-17,36.12725748464733,25.000860773527116,-4.844698902407495e-16,36.1271505073066,2.317634857639355e-19,3.335410596631716e-05,-2.6055941612208107e-16,21.967077790233084,21.967077790233084,5.5590176610528605e-05,0.6053536864357718,0.6053536864357718,21.967077790233084,21.967077790233084,5.5590176610528605e-05,0.6053536864357718,0.6053536864357718,1.1027181104082779e-17,1.1027181104082779e-17
1762671452.48023,-5.43992923209647e-07,-1.5008116418299965e-20,0.08440236016722978,5.0,0.0,1.5,-1.0018534549726158e-19,-4.911627617167803e-06,2.6045264039738104e-17,-7.194455571880485e-05,-7.545814985221531e-18,1.2594752438211607,1.1221228624717872e-18,-0.0006399135733459666,5.634196030720564e-15,0.0,0.0,0.0,25.00072216552181,7.553319043430679e-17,35.68523576095225,25.000897437809737,-5.791923449224778e-16,35.68511296628438,6.606251876420214e-20,3.445149247587236e-05,-2.947324621552665e-16,21.785706679481695,21.785706679481695,5.741915412645393e-05,0.6111275490293412,0.6111275490293412,21.785706679481695,21.785706679481695,5.741915412645393e-05,0.6111275490293412,0.6111275490293412,1.3292943704873598e-17,1.3292943704873598e-17
1762671452.4815898,-5.43992923209647e-07,-1.5008116418299965e-20,0.08440236016722978,5.0,0.0,1.5,-1.0018534549726158e-19,-4.911627617167803e-06,2.6045264039738104e-17,-7.194455571880485e-05,-7.545814985221531e-18,1.2594752438211607,1.1221228624717872e-18,-0.0006399135733459666,5.634196030720564e-15,0.0,0.0,0.0,25.00072216552181,7.553319043430679e-17,35.68523576095225,25.000897437809737,-5.791923449224778e-16,35.68511296628438,6.606251876420214e-20,3.445149247587236e-05,-2.947324621552665e-16,21.785706679481695,21.785706679481695,5.741915412645393e-05,0.6111275490293412,0.6111275490293412,21.785706679481695,21.785706679481695,5.741915412645393e-05,0.6111275490293412,0.6111275490293412,1.3292943704873598e-17,1.3292943704873598e-17
1762671452.4832141,-6.149080594846338e-07,-2.247055423001715e-20,0.08568049700628023,5.0,0.0,1.5,-9.39602389004759e-20,-5.557156590799265e-06,3.195133344473394e-17,-7.282922250020725e-05,-1.7126983154032249e-18,1.2956122460283066,8.855268883690176e-18,-0.0006500939123448783,6.1619513759303664e-15,0.0,0.0,0.0,25.00072216552181,7.553319043430679e-17,35.68523576095225,25.000897437809737,-5.791923449224778e-16,35.68511296628438,6.606251876420214e-20,3.445149247587236e-05,-2.947324621552665e-16,21.785706679481695,21.785706679481695,5.741915412645393e-05,0.6111275490293412,0.6111275490293412,21.785706679481695,21.785706679481695,5.741915412645393e-05,0.6111275490293412,0.6111275490293412,1.3292943704873598e-17,1.3292943704873598e-17
1762671452.4847207,-6.149080594846338e-07,-2.247055423001715e-20,0.08568049700628023,5.0,0.0,1.5,-9.39602389004759e-20,-5.557156590799265e-06,3.195133344473394e-17,-7.282922250020725e-05,-1.7126983154032249e-18,1.2956122460283066,8.855268883690176e-18,-0.0006500939123448783,6.1619513759303664e-15,0.0,0.0,0.0,25.000731366765304,1.7239335925182325e-17,35.31747505468553,25.000927631118536,-7.848857936758275e-16,35.317336121161105,-3.157107728222931e-19,3.5283273912629246e-05,-3.2407346565847978e-16,21.635367222506346,21.635367222506346,5.8805456521048744e-05,0.616005060664069,0.616005060664069,21.635367222506346,21.635367222506346,5.8805456521048744e-05,0.616005060664069,0.616005060664069,1.813895242922765e-17,1.813895242922765e-17
1762671452.486262,-6.149080594846338e-07,-2.247055423001715e-20,0.08568049700628023,5.0,0.0,1.5,-9.39602389004759e-20,-5.557156590799265e-06,3.195133344473394e-17,-7.282922250020725e-05,-1.7126983154032249e-18,1.2956122460283066,8.855268883690176e-18,-0.0006500939123448783,6.1619513759303664e-15,0.0,0.0,0.0,25.000731366765304,1.7239335925182325e-17,35.31747505468553,25.000927631118536,-7.848857936758275e-16,35.317336121161105,-3.157107728222931e-19,3.5283273912629246e-05,-3.2407346565847978e-16,21.635367222506346,21.635367222506346,5.8805456521048744e-05,0.616005060664069,0.616005060664069,21.635367222506346,21.635367222506346,5.8805456521048744e-05,0.616005060664069,0.616005060664069,1.813895242922765e-17,1.813895242922765e-17
1762671452.4878883,-6.863598359423017e-07,-2.571525050469601e-20,0.0869913203035268,5.0,0.0,1.5,-7.534948523990947e-20,-6.210257784561889e-06,3.840393998725414e-17,-7.306153946960016e-05,-1.8847354462641823e-18,1.3249523186059773,2.3239125083434756e-18,-0.0006551357226438942,6.704279093865381e-15,0.0,0.0,0.0,25.000731366765304,1.7239335925182325e-17,35.31747505468553,25.000927631118536,-7.848857936758275e-16,35.317336121161105,-3.157107728222931e-19,3.5283273912629246e-05,-3.2407346565847978e-16,21.635367222506346,21.635367222506346,5.8805456521048744e-05,0.616005060664069,0.616005060664069,21.635367222506346,21.635367222506346,5.8805456521048744e-05,0.616005060664069,0.616005060664069,1.813895242922765e-17,1.813895242922765e-17
1762671452.489347,-6.863598359423017e-07,-2.571525050469601e-20,0.0869913203035268,5.0,0.0,1.5,-7.534948523990947e-20,-6.210257784561889e-06,3.840393998725414e-17,-7.306153946960016e-05,-1.8847354462641823e-18,1.3249523186059773,2.3239125083434756e-18,-0.0006551357226438942,6.704279093865381e-15,0.0,0.0,0.0,25.000734047193873,1.8975930715165117e-17,35.017520212422596,25.000951514539263,-9.437892996940664e-16,35.017364950744096,9.263747189918998e-21,3.5861915024455695e-05,-3.5441598546885004e-16,21.513131099189334,21.513131099189334,5.976985837409283e-05,0.6200337072363363,0.6200337072363363,21.513131099189334,21.513131099189334,5.976985837409283e-05,0.6200337072363363,0.6200337072363363,2.1935191473119192e-17,2.1935191473119192e-17
1762671452.490765,-6.863598359423017e-07,-2.571525050469601e-20,0.0869913203035268,5.0,0.0,1.5,-7.534948523990947e-20,-6.210257784561889e-06,3.840393998725414e-17,-7.306153946960016e-05,-1.8847354462641823e-18,1.3249523186059773,2.3239125083434756e-18,-0.0006551357226438942,6.704279093865381e-15,0.0,0.0,0.0,25.000734047193873,1.8975930715165117e-17,35.017520212422596,25.000951514539263,-9.437892996940664e-16,35.017364950744096,9.263747189918998e-21,3.5861915024455695e-05,-3.5441598546885004e-16,21.513131099189334,21.513131099189334,5.976985837409283e-05,0.6200337072363363,0.6200337072363363,21.513131099189334,21.513131099189334,5.976985837409283e-05,0.6200337072363363,0.6200337072363363,2.1935191473119192e-17,2.1935191473119192e-17
1762671452.4924452,-7.577206937053597e-07,-2.9171416490273746e-20,0.0883283377215067,5.0,0.0,1.5,-8.012019218329176e-20,-6.8659428684033154e-06,4.538945995354996e-17,-7.266716811124651e-05,-2.3283041307564265e-18,1.3480969956224222,5.078518691210339e-18,-0.0006553373794223423,7.251821332005839e-15,0.0,0.0,0.0,25.000734047193873,1.8975930715165117e-17,35.017520212422596,25.000951514539263,-9.437892996940664e-16,35.017364950744096,9.263747189918998e-21,3.5861915024455695e-05,-3.5441598546885004e-16,21.513131099189334,21.513131099189334,5.976985837409283e-05,0.6200337072363363,0.6200337072363363,21.513131099189334,21.513131099189334,5.976985837409283e-05,0.6200337072363363,0.6200337072363363,2.1935191473119192e-17,2.1935191473119192e-17
1762671452.4940264,-7.577206937053597e-07,-2.9171416490273746e-20,0.0883283377215067,5.0,0.0,1.5,-8.012019218329176e-20,-6.8659428684033154e-06,4.538945995354996e-17,-7.266716811124651e-05,-2.3283041307564265e-18,1.3480969956224222,5.078518691210339e-18,-0.0006553373794223423,7.251821332005839e-15,0.0,0.0,0.0,25.000730460284572,2.3428898390015498e-17,34.77938835516825,25.000969252988735,-1.1141272731726172e-15,34.779216700761474,-1.188959570739449e-19,3.6199840405291795e-05,-3.8528592956499955e-16,21.416338279672175,21.416338279672175,6.033306734215299e-05,0.6232647461442822,0.6232647461442822,21.416338279672175,21.416338279672175,6.033306734215299e-05,0.6232647461442822,0.6232647461442822,2.6011152294650612e-17,2.6011152294650612e-17
1762671452.4955335,-7.577206937053597e-07,-2.9171416490273746e-20,0.0883283377215067,5.0,0.0,1.5,-8.012019218329176e-20,-6.8659428684033154e-06,4.538945995354996e-17,-7.266716811124651e-05,-2.3283041307564265e-18,1.3480969956224222,5.078518691210339e-18,-0.0006553373794223423,7.251821332005839e-15,0.0,0.0,0.0,25.000730460284572,2.3428898390015498e-17,34.77938835516825,25.000969252988735,-1.1141272731726172e-15,34.779216700761474,-1.188959570739449e-19,3.6199840405291795e-05,-3.8528592956499955e-16,21.416338279672175,21.416338279672175,6.033306734215299e-05,0.6232647461442822,0.6232647461442822,21.416338279672175,21.416338279672175,6.033306734215299e-05,0.6232647461442822,0.6232647461442822,2.6011152294650612e-17,2.6011152294650612e-17
1762671452.4971256,-8.283879115981774e-07,-2.9131668314085867e-20,0.08968563603952243,5.0,0.0,1.5,-8.443607342249751e-20,-7.519520045981443e-06,5.2914765123153105e-17,-7.167153498234759e-05,1.389956600623998e-18,1.365603496220028,1.764843840051133e-18,-0.0006509934554794652,7.78885418401746e-15,0.0,0.0,0.0,25.000730460284572,2.3428898390015498e-17,34.77938835516825,25.000969252988735,-1.1141272731726172e-15,34.779216700761474,-1.188959570739449e-19,3.6199840405291795e-05,-3.8528592956499955e-16,21.416338279672175,21.416338279672175,6.033306734215299e-05,0.6232647461442822,0.6232647461442822,21.416338279672175,21.416338279672175,6.033306734215299e-05,0.6232647461442822,0.6232647461442822,2.6011152294650612e-17,2.6011152294650612e-17
1762671452.498601,-8.283879115981774e-07,-2.9131668314085867e-20,0.08968563603952243,5.0,0.0,1.5,-8.443607342249751e-20,-7.519520045981443e-06,5.2914765123153105e-17,-7.167153498234759e-05,1.389956600623998e-18,1.365603496220028,1.764843840051133e-18,-0.0006509934554794652,7.78885418401746e-15,0.0,0.0,0.0,25.000720857289377,-1.375390766466946e-17,34.597536857602115,25.00098101345451,-1.339582444026489e-15,34.59734886320234,5.528623328841257e-20,3.630943279692855e-05,-4.159001375594175e-16,21.34257138112614,21.34257138112614,6.0515721328214254e-05,0.6257518890898086,0.6257518890898086,21.34257138112614,21.34257138112614,6.0515721328214254e-05,0.6257518890898086,0.6257518890898086,3.138287369653876e-17,3.138287369653876e-17
1762671452.500101,-8.283879115981774e-07,-2.9131668314085867e-20,0.08968563603952243,5.0,0.0,1.5,-8.443607342249751e-20,-7.519520045981443e-06,5.2914765123153105e-17,-7.167153498234759e-05,1.389956600623998e-18,1.365603496220028,1.764843840051133e-18,-0.0006509934554794652,7.78885418401746e-15,0.0,0.0,0.0,25.000720857289377,-1.375390766466946e-17,34.597536857602115,25.00098101345451,-1.339582444026489e-15,34.59734886320234,5.528623328841257e-20,3.630943279692855e-05,-4.159001375594175e-16,21.34257138112614,21.34257138112614,6.0515721328214254e-05,0.6257518890898086,0.6257518890898086,21.34257138112614,21.34257138112614,6.0515721328214254e-05,0.6257518890898086,0.6257518890898086,3.138287369653876e-17,3.138287369653876e-17
1762671452.5018182,-8.977834180328751e-07,-3.2184312135077924e-20,0.0910578383631158,5.0,0.0,1.5,-6.239743375738332e-20,-8.166590131801467e-06,6.091575264304703e-17,-7.009990507974185e-05,1.4346948676169955e-18,1.3779877395357758,1.2275622984008915e-17,-0.0006423944819511565,8.264783912973208e-15,0.0,0.0,0.0,25.000720857289377,-1.375390766466946e-17,34.597536857602115,25.00098101345451,-1.339582444026489e-15,34.59734886320234,5.528623328841257e-20,3.630943279692855e-05,-4.159001375594175e-16,21.34257138112614,21.34257138112614,6.0515721328214254e-05,0.6257518890898086,0.6257518890898086,21.34257138112614,21.34257138112614,6.0515721328214254e-05,0.6257518890898086,0.6257518890898086,3.138287369653876e-17,3.138287369653876e-17
1762671452.5034568,-8.977834180328751e-07,-3.2184312135077924e-20,0.0910578383631158,5.0,0.0,1.5,-6.239743375738332e-20,-8.166590131801467e-06,6.091575264304703e-17,-7.009990507974185e-05,1.4346948676169955e-18,1.3779877395357758,1.2275622984008915e-17,-0.0006423944819511565,8.264783912973208e-15,0.0,0.0,0.0,25.00070548796789,-1.418602711549482e-17,34.466833412826674,25.00098696363582,-1.539273447737131e-15,34.46662924116259,-4.765217692141209e-19,3.620301916341317e-05,-4.4369738727398126e-16,21.28963199005072,21.28963199005072,6.033836527235529e-05,0.627550138580096,0.627550138580096,21.28963199005072,21.28963199005072,6.033836527235529e-05,0.627550138580096,0.627550138580096,3.6150776313476896e-17,3.6150776313476896e-17
1762671452.5048747,-8.977834180328751e-07,-3.2184312135077924e-20,0.0910578383631158,5.0,0.0,1.5,-6.239743375738332e-20,-8.166590131801467e-06,6.091575264304703e-17,-7.009990507974185e-05,1.4346948676169955e-18,1.3779877395357758,1.2275622984008915e-17,-0.0006423944819511565,8.264783912973208e-15,0.0,0.0,0.0,25.00070548796789,-1.418602711549482e-17,34.466833412826674,25.00098696363582,-1.539273447737131e-15,34.46662924116259,-4.765217692141209e-19,3.620301916341317e-05,-4.4369738727398126e-16,21.28963199005072,21.28963199005072,6.033836527235529e-05,0.627550138580096,0.627550138580096,21.28963199005072,21.28963199005072,6.033836527235529e-05,0.627550138580096,0.627550138580096,3.6150776313476896e-17,3.6150776313476896e-17
1762671452.5065193,-9.65353661625191e-07,-3.618516132644163e-20,0.09244006424901556,5.0,0.0,1.5,-4.011748708023417e-20,-8.803042294362759e-06,6.938437741065955e-17,-6.797742469172183e-05,-9.580027903777148e-20,1.3857271628847467,1.886418719992101e-17,-0.000629826524484559,8.668704344731214e-15,0.0,0.0,0.0,25.00070548796789,-1.418602711549482e-17,34.466833412826674,25.00098696363582,-1.539273447737131e-15,34.46662924116259,-4.765217692141209e-19,3.620301916341317e-05,-4.4369738727398126e-16,21.28963199005072,21.28963199005072,6.033836527235529e-05,0.627550138580096,0.627550138580096,21.28963199005072,21.28963199005072,6.033836527235529e-05,0.627550138580096,0.627550138580096,3.6150776313476896e-17,3.6150776313476896e-17
1762671452.5080323,-9.65353661625191e-07,-3.618516132644163e-20,0.09244006424901556,5.0,0.0,1.5,-4.011748708023417e-20,-8.803042294362759e-06,6.938437741065955e-17,-6.797742469172183e-05,-9.580027903777148e-20,1.3857271628847467,1.886418719992101e-17,-0.000629826524484559,8.668704344731214e-15,0.0,0.0,0.0,25.00068460101523,1.1389285970099103e-18,34.382528049907464,25.00098727089514,-1.7348973390803295e-15,34.382307966491325,-8.141077162740236e-19,3.589284737135248e-05,-4.681278810995479e-16,21.255519001127986,21.255519001127986,5.9821412285587474e-05,0.6287147849427589,0.6287147849427589,21.255519001127986,21.255519001127986,5.9821412285587474e-05,0.6287147849427589,0.6287147849427589,4.081051464770779e-17,4.081051464770779e-17
1762671452.5095747,-9.65353661625191e-07,-3.618516132644163e-20,0.09244006424901556,5.0,0.0,1.5,-4.011748708023417e-20,-8.803042294362759e-06,6.938437741065955e-17,-6.797742469172183e-05,-9.580027903777148e-20,1.3857271628847467,1.886418719992101e-17,-0.000629826524484559,8.668704344731214e-15,0.0,0.0,0.0,25.00068460101523,1.1389285970099103e-18,34.382528049907464,25.00098727089514,-1.7348973390803295e-15,34.382307966491325,-8.141077162740236e-19,3.589284737135248e-05,-4.681278810995479e-16,21.255519001127986,21.255519001127986,5.9821412285587474e-05,0.6287147849427589,0.6287147849427589,21.255519001127986,21.255519001127986,5.9821412285587474e-05,0.6287147849427589,0.6287147849427589,4.081051464770779e-17,4.081051464770779e-17
1762671452.5112865,-1.030569512875387e-06,-3.89885201625058e-20,0.093827892555156,5.0,0.0,1.5,-1.1402610464309768e-20,-9.425049310726335e-06,7.819683294123399e-17,-6.532913853714447e-05,-1.6697109585796752e-18,1.3892633557409015,1.897614092501828e-17,-0.0006135706325056337,8.9501467650629e-15,0.0,0.0,0.0,25.00068460101523,1.1389285970099103e-18,34.382528049907464,25.00098727089514,-1.7348973390803295e-15,34.382307966491325,-8.141077162740236e-19,3.589284737135248e-05,-4.681278810995479e-16,21.255519001127986,21.255519001127986,5.9821412285587474e-05,0.6287147849427589,0.6287147849427589,21.255519001127986,21.255519001127986,5.9821412285587474e-05,0.6287147849427589,0.6287147849427589,4.081051464770779e-17,4.081051464770779e-17
1762671452.5128355,-1.030569512875387e-06,-3.89885201625058e-20,0.093827892555156,5.0,0.0,1.5,-1.1402610464309768e-20,-9.425049310726335e-06,7.819683294123399e-17,-6.532913853714447e-05,-1.6697109585796752e-18,1.3892633557409015,1.897614092501828e-17,-0.0006135706325056337,8.9501467650629e-15,0.0,0.0,0.0,25.000658444232936,1.689205218660891e-17,34.34022697981521,25.000982101455136,-1.9384718251425896e-15,34.33999134585133,-8.334590490373288e-19,3.539105628057508e-05,-4.866062204241378e-16,21.238408959822547,21.238408959822547,5.8985093800958475e-05,0.6293005627654239,0.6293005627654239,21.238408959822547,21.238408959822547,5.8985093800958475e-05,0.6293005627654239,0.6293005627654239,4.563599441016664e-17,4.563599441016664e-17
1762671452.5144172,-1.030569512875387e-06,-3.89885201625058e-20,0.093827892555156,5.0,0.0,1.5,-1.1402610464309768e-20,-9.425049310726335e-06,7.819683294123399e-17,-6.532913853714447e-05,-1.6697109585796752e-18,1.3892633557409015,1.897614092501828e-17,-0.0006135706325056337,8.9501467650629e-15,0.0,0.0,0.0,25.000658444232936,1.689205218660891e-17,34.34022697981521,25.000982101455136,-1.9384718251425896e-15,34.33999134585133,-8.334590490373288e-19,3.539105628057508e-05,-4.866062204241378e-16,21.238408959822547,21.238408959822547,5.8985093800958475e-05,0.6293005627654239,0.6293005627654239,21.238408959822547,21.238408959822547,5.8985093800958475e-05,0.6293005627654239,0.6293005627654239,4.563599441016664e-17,4.563599441016664e-17
1762671452.516196,-1.1111139022807426e-06,-6.344521776204412e-20,0.09521772280513692,5.0,0.0,1.5,-9.151842140293735e-18,-1.1906725695699619e-05,9.906094364351194e-17,-0.00012773338545333802,-3.794115245123927e-18,1.3897188249897696,-1.8438312679693113e-14,-0.004094461318147219,3.2652990844788736e-14,0.0,0.0,0.0,25.000658444232936,1.689205218660891e-17,34.34022697981521,25.000982101455136,-1.9384718251425896e-15,34.33999134585133,-8.334590490373288e-19,3.539105628057508e-05,-4.866062204241378e-16,21.238408959822547,21.238408959822547,5.8985093800958475e-05,0.6293005627654239,0.6293005627654239,21.238408959822547,21.238408959822547,5.8985093800958475e-05,0.6293005627654239,0.6293005627654239,4.563599441016664e-17,4.563599441016664e-17
1762671452.517744,-1.1111139022807426e-06,-6.344521776204412e-20,0.09521772280513692,5.0,0.0,1.5,-9.151842140293735e-18,-1.1906725695699619e-05,9.906094364351194e-17,-0.00012773338545333802,-3.794115245123927e-18,1.3897188249897696,-1.8438312679693113e-14,-0.004094461318147219,3.2652990844788736e-14,0.0,0.0,0.0,25.001282889424047,3.825837854004923e-17,34.32872313607662,25.001691630341686,-2.7525606274299943e-15,34.32842545022583,9.291651883404857e-16,0.0002106764287550701,-1.6791601884957626e-15,21.23382485030334,21.233824850303336,0.00035112738125845017,0.6294784159928034,0.6294784159928033,21.23382485030334,21.233824850303336,0.00035112738125845017,0.6294784159928034,0.6294784159928033,6.481546887655222e-17,6.481546887655222e-17
1762671452.5192888,-1.1111139022807426e-06,-6.344521776204412e-20,0.09521772280513692,5.0,0.0,1.5,-9.151842140293735e-18,-1.1906725695699619e-05,9.906094364351194e-17,-0.00012773338545333802,-3.794115245123927e-18,1.3897188249897696,-1.8438312679693113e-14,-0.004094461318147219,3.2652990844788736e-14,0.0,0.0,0.0,25.001282889424047,3.825837854004923e-17,34.32872313607662,25.001691630341686,-2.7525606274299943e-15,34.32842545022583,9.291651883404857e-16,0.0002106764287550701,-1.6791601884957626e-15,21.23382485030334,21.233824850303336,0.00035112738125845017,0.6294784159928034,0.6294784159928033,21.23382485030334,21.233824850303336,0.00035112738125845017,0.6294784159928034,0.6294784159928033,6.481546887655222e-17,6.481546887655222e-17
1762671452.5212045,-1.0999540884276555e-06,-8.9101153280105e-20,0.09660792159594668,5.0,0.0,1.5,-1.8351751318854622e-17,-1.808006074179286e-05,2.311968668448365e-16,6.225308058851442e-05,-3.66052400820804e-18,1.3901615651208064,-1.221725724335194e-14,-0.00969974025111792,2.4134418421538095e-13,0.0,0.0,0.0,25.001282889424047,3.825837854004923e-17,34.32872313607662,25.001691630341686,-2.7525606274299943e-15,34.32842545022583,9.291651883404857e-16,0.0002106764287550701,-1.6791601884957626e-15,21.23382485030334,21.233824850303336,0.00035112738125845017,0.6294784159928034,0.6294784159928033,21.23382485030334,21.233824850303336,0.00035112738125845017,0.6294784159928034,0.6294784159928033,6.481546887655222e-17,6.481546887655222e-17
1762671452.5234919,-1.0999540884276555e-06,-8.9101153280105e-20,0.09660792159594668,5.0,0.0,1.5,-1.8351751318854622e-17,-1.808006074179286e-05,2.311968668448365e-16,6.225308058851442e-05,-3.66052400820804e-18,1.3901615651208064,-1.221725724335194e-14,-0.00969974025111792,2.4134418421538095e-13,0.0,0.0,0.0,24.999382968964564,3.7050745848481953e-17,34.31734474081221,25.000003424555935,-6.3725033513194135e-15,34.31689274484067,6.668572107730684e-16,0.0004940270429263,-1.217806739235816e-14,21.228476087497683,21.228476087497665,0.0008233784048771667,0.6296127393736854,0.6296127393736842,21.228476087497683,21.228476087497665,0.0008233784048771667,0.6296127393736854,0.6296127393736842,1.5009328331091187e-16,1.5009328331091187e-16
1762671452.5256505,-1.0999540884276555e-06,-8.9101153280105e-20,0.09660792159594668,5.0,0.0,1.5,-1.8351751318854622e-17,-1.808006074179286e-05,2.311968668448365e-16,6.225308058851442e-05,-3.66052400820804e-18,1.3901615651208064,-1.221725724335194e-14,-0.00969974025111792,2.4134418421538095e-13,0.0,0.0,0.0,24.999382968964564,3.7050745848481953e-17,34.31734474081221,25.000003424555935,-6.3725033513194135e-15,34.31689274484067,6.668572107730684e-16,0.0004940270429263,-1.217806739235816e-14,21.228476087497683,21.228476087497665,0.0008233784048771667,0.6296127393736854,0.6296127393736842,21.228476087497683,21.228476087497665,0.0008233784048771667,0.6296127393736854,0.6296127393736842,1.5009328331091187e-16,1.5009328331091187e-16
1762671452.527762,-9.326920266808441e-07,-1.2164650200492246e-19,0.09799823209567596,5.0,0.0,1.5,-3.0557995168219006e-17,-3.055869634847206e-05,7.194484733138218e-16,0.00021508069020748864,-3.351778576882245e-18,1.3904594032473243,-1.2184927594856066e-14,-0.015226763636111607,7.351590183028292e-13,0.0,0.0,0.0,24.999382968964564,3.7050745848481953e-17,34.31734474081221,25.000003424555935,-6.3725033513194135e-15,34.31689274484067,6.668572107730684e-16,0.0004940270429263,-1.217806739235816e-14,21.228476087497683,21.228476087497665,0.0008233784048771667,0.6296127393736854,0.6296127393736842,21.228476087497683,21.228476087497665,0.0008233784048771667,0.6296127393736854,0.6296127393736842,1.5009328331091187e-16,1.5009328331091187e-16
1762671452.5297549,-9.326920266808441e-07,-1.2164650200492246e-19,0.09799823209567596,5.0,0.0,1.5,-3.0557995168219006e-17,-3.055869634847206e-05,7.194484733138218e-16,0.00021508069020748864,-3.351778576882245e-18,1.3904594032473243,-1.2184927594856066e-14,-0.015226763636111607,7.351590183028292e-13,0.0,0.0,0.0,24.997853856558052,3.412601827884664e-17,34.30741480704838,24.99890223475756,-1.8998884247053963e-14,34.30665088920442,8.484017331045484e-16,0.0007766175299774384,-3.711025343776488e-14,21.223822696228904,21.22382269622885,0.0012943625499623973,0.6297403793838104,0.6297403793838069,21.223822696228904,21.22382269622885,0.0012943625499623973,0.6297403793838104,0.6297403793838069,4.475839371394143e-16,4.475839371394143e-16
1762671452.531913,-9.326920266808441e-07,-1.2164650200492246e-19,0.09799823209567596,5.0,0.0,1.5,-3.0557995168219006e-17,-3.055869634847206e-05,7.194484733138218e-16,0.00021508069020748864,-3.351778576882245e-18,1.3904594032473243,-1.2184927594856066e-14,-0.015226763636111607,7.351590183028292e-13,0.0,0.0,0.0,24.997853856558052,3.412601827884664e-17,34.30741480704838,24.99890223475756,-1.8998884247053963e-14,34.30665088920442,8.484017331045484e-16,0.0007766175299774384,-3.711025343776488e-14,21.223822696228904,21.22382269622885,0.0012943625499623973,0.6297403793838104,0.6297403793838069,21.223822696228904,21.22382269622885,0.0012943625499623973,0.6297403793838104,0.6297403793838069,4.475839371394143e-16,4.475839371394143e-16
1762671452.533989,-5.92913666118483e-07,-1.5361904645949057e-19,0.0993888392772542,5.0,0.0,1.5,-4.275255731005192e-17,-4.847228505691155e-05,1.842749522597568e-15,0.00038147617949091573,-2.7886303293902745e-18,1.3907549230086669,-1.2160943576209425e-14,-0.020570432472405784,1.511442321977813e-12,0.0,0.0,0.0,24.997853856558052,3.412601827884664e-17,34.30741480704838,24.99890223475756,-1.8998884247053963e-14,34.30665088920442,8.484017331045484e-16,0.0007766175299774384,-3.711025343776488e-14,21.223822696228904,21.22382269622885,0.0012943625499623973,0.6297403793838104,0.6297403793838069,21.223822696228904,21.22382269622885,0.0012943625499623973,0.6297403793838104,0.6297403793838069,4.475839371394143e-16,4.475839371394143e-16
1762671452.535887,-5.92913666118483e-07,-1.5361904645949057e-19,0.0993888392772542,5.0,0.0,1.5,-4.275255731005192e-17,-4.847228505691155e-05,1.842749522597568e-15,0.00038147617949091573,-2.7886303293902745e-18,1.3907549230086669,-1.2160943576209425e-14,-0.020570432472405784,1.511442321977813e-12,0.0,0.0,0.0,24.996188202773418,2.8654398526212436e-17,34.29750657352706,24.997850651923088,-4.7499313792593117e-14,34.29629491087557,1.2512215712865292e-15,0.0010527577661392543,-7.648348410682428e-14,21.219142493309516,21.219142493309405,0.0017545962768987574,0.6298704547799262,0.6298704547799189,21.219142493309516,21.219142493309405,0.0017545962768987574,0.6298704547799262,0.6298704547799189,1.119256204805872e-15,1.119256204805872e-15
1762671452.5377097,-5.92913666118483e-07,-1.5361904645949057e-19,0.0993888392772542,5.0,0.0,1.5,-4.275255731005192e-17,-4.847228505691155e-05,1.842749522597568e-15,0.00038147617949091573,-2.7886303293902745e-18,1.3907549230086669,-1.2160943576209425e-14,-0.020570432472405784,1.511442321977813e-12,0.0,0.0,0.0,24.996188202773418,2.8654398526212436e-17,34.29750657352706,24.997850651923088,-4.7499313792593117e-14,34.29629491087557,1.2512215712865292e-15,0.0010527577661392543,-7.648348410682428e-14,21.219142493309516,21.219142493309405,0.0017545962768987574,0.6298704547799262,0.6298704547799189,21.219142493309516,21.219142493309405,0.0017545962768987574,0.6298704547799262,0.6298704547799189,1.119256204805872e-15,1.119256204805872e-15
1762671452.5398488,-6.727227464906058e-08,-1.8466809694669265e-19,0.10077974080256216,5.0,0.0,1.5,-5.499762998697485e-17,-7.163986776448667e-05,3.880345466439023e-15,0.000561856615254976,-1.8126515584959846e-18,1.3910480833176626,-1.2168495643314424e-14,-0.025735519291216587,2.563748665053799e-12,0.0,0.0,0.0,24.996188202773418,2.8654398526212436e-17,34.29750657352706,24.997850651923088,-4.7499313792593117e-14,34.29629491087557,1.2512215712865292e-15,0.0010527577661392543,-7.648348410682428e-14,21.219142493309516,21.219142493309405,0.0017545962768987574,0.6298704547799262,0.6298704547799189,21.219142493309516,21.219142493309405,0.0017545962768987574,0.6298704547799262,0.6298704547799189,1.119256204805872e-15,1.119256204805872e-15
1762671452.541846,-6.727227464906058e-08,-1.8466809694669265e-19,0.10077974080256216,5.0,0.0,1.5,-5.499762998697485e-17,-7.163986776448667e-05,3.880345466439023e-15,0.000561856615254976,-1.8126515584959846e-18,1.3910480833176626,-1.2168495643314424e-14,-0.025735519291216587,2.563748665053799e-12,0.0,0.0,0.0,24.994381770208825,1.9049856069701955e-17,34.287620462810565,24.996838066663674,-9.885342551247725e-14,34.28582978062055,1.955442164811416e-15,0.0013225958984124332,-1.3011507849623942e-13,21.214434281931883,21.214434281931684,0.0022043264973540555,0.630002700028068,0.6300027000280557,21.214434281931883,21.214434281931684,0.0022043264973540555,0.630002700028068,0.6300027000280557,2.329862399316256e-15,2.329862399316256e-15
1762671452.5439792,-6.727227464906058e-08,-1.8466809694669265e-19,0.10077974080256216,5.0,0.0,1.5,-5.499762998697485e-17,-7.163986776448667e-05,3.880345466439023e-15,0.000561856615254976,-1.8126515584959846e-18,1.3910480833176626,-1.2168495643314424e-14,-0.025735519291216587,2.563748665053799e-12,0.0,0.0,0.0,24.994381770208825,1.9049856069701955e-17,34.287620462810565,24.996838066663674,-9.885342551247725e-14,34.28582978062055,1.955442164811416e-15,0.0013225958984124332,-1.3011507849623942e-13,21.214434281931883,21.214434281931684,0.0022043264973540555,0.630002700028068,0.6300027000280557,21.214434281931883,21.214434281931684,0.0022043264973540555,0.630002700028068,0.6300027000280557,2.329862399316256e-15,2.329862399316256e-15
1762671452.5460274,6.579999295471564e-07,-2.1419018895689073e-19,0.10217093429156246,5.0,0.0,1.5,-6.738331637184666e-17,-9.988519838037584e-05,7.105110318651651e-15,0.0007566245743312107,-1.7880638862395364e-19,1.3913388411031806,-1.2284919244015902e-14,-0.030726677266818797,3.8857794308181805e-12,0.0,0.0,0.0,24.994381770208825,1.9049856069701955e-17,34.287620462810565,24.996838066663674,-9.885342551247725e-14,34.28582978062055,1.955442164811416e-15,0.0013225958984124332,-1.3011507849623942e-13,21.214434281931883,21.214434281931684,0.0022043264973540555,0.630002700028068,0.6300027000280557,21.214434281931883,21.214434281931684,0.0022043264973540555,0.630002700028068,0.6300027000280557,2.329862399316256e-15,2.329862399316256e-15
1762671452.547703,6.579999295471564e-07,-2.1419018895689073e-19,0.10217093429156246,5.0,0.0,1.5,-6.738331637184666e-17,-9.988519838037584e-05,7.105110318651651e-15,0.0007566245743312107,-1.7880638862395364e-19,1.3913388411031806,-1.2284919244015902e-14,-0.030726677266818797,3.8857794308181805e-12,0.0,0.0,0.0,24.99243046425704,2.85901483103932e-18,34.277756917510395,24.995854180125686,-1.7988069727836284e-13,34.27526037264412,3.0357020064804147e-15,0.0015862764624480813,-1.9782642601877047e-13,21.209696917528955,21.20969691752866,0.0026437941040801357,0.6301368565786147,0.6301368565785961,21.209696917528955,21.20969691752866,0.0026437941040801357,0.6301368565786147,0.6301368565785961,4.2405296496646296e-15,4.2405296496646296e-15
1762671452.5493248,6.579999295471564e-07,-2.1419018895689073e-19,0.10217093429156246,5.0,0.0,1.5,-6.738331637184666e-17,-9.988519838037584e-05,7.105110318651651e-15,0.0007566245743312107,-1.7880638862395364e-19,1.3913388411031806,-1.2284919244015902e-14,-0.030726677266818797,3.8857794308181805e-12,0.0,0.0,0.0,24.99243046425704,2.85901483103932e-18,34.277756917510395,24.995854180125686,-1.7988069727836284e-13,34.27526037264412,3.0357020064804147e-15,0.0015862764624480813,-1.9782642601877047e-13,21.209696917528955,21.20969691752866,0.0026437941040801357,0.6301368565786147,0.6301368565785961,21.209696917528955,21.20969691752866,0.0026437941040801357,0.6301368565786147,0.6301368565785961,4.2405296496646296e-15,4.2405296496646296e-15
1762671452.550984,1.5970771503264368e-06,-2.41381150071472e-19,0.10356241732031898,5.0,0.0,1.5,-8.010087761595733e-17,-0.0001330366255645544,1.178369218875022e-14,0.0009661685037067213,2.460604182928233e-18,1.3916271513573777,-1.2481831111923534e-14,-0.035548443189466795,5.471382381301366e-12,0.0,0.0,0.0,24.99243046425704,2.85901483103932e-18,34.277756917510395,24.995854180125686,-1.7988069727836284e-13,34.27526037264412,3.0357020064804147e-15,0.0015862764624480813,-1.9782642601877047e-13,21.209696917528955,21.20969691752866,0.0026437941040801357,0.6301368565786147,0.6301368565785961,21.209696917528955,21.20969691752866,0.0026437941040801357,0.6301368565786147,0.6301368565785961,4.2405296496646296e-15,4.2405296496646296e-15
1762671452.552487,1.5970771503264368e-06,-2.41381150071472e-19,0.10356241732031898,5.0,0.0,1.5,-8.010087761595733e-17,-0.0001330366255645544,1.178369218875022e-14,0.0009661685037067213,2.460604182928233e-18,1.3916271513573777,-1.2481831111923534e-14,-0.035548443189466795,5.471382381301366e-12,0.0,0.0,0.0,24.990330329577176,-2.3399136078968306e-17,34.267916399824635,24.994888996377966,-2.972463832826935e-13,34.26459146736612,4.553732593557548e-15,0.0018439404720594018,-2.79443214082719e-13,21.20492930658071,21.204929306580283,0.003073234120099003,0.6302726726884678,0.6302726726884414,21.20492930658071,21.204929306580283,0.003073234120099003,0.6302726726884678,0.6302726726884414,7.008898237412408e-15,7.008898237412408e-15
1762671452.5539303,1.5970771503264368e-06,-2.41381150071472e-19,0.10356241732031898,5.0,0.0,1.5,-8.010087761595733e-17,-0.0001330366255645544,1.178369218875022e-14,0.0009661685037067213,2.460604182928233e-18,1.3916271513573777,-1.2481831111923534e-14,-0.035548443189466795,5.471382381301366e-12,0.0,0.0,0.0,24.990330329577176,-2.3399136078968306e-17,34.267916399824635,24.994888996377966,-2.972463832826935e-13,34.26459146736612,4.553732593557548e-15,0.0018439404720594018,-2.79443214082719e-13,21.20492930658071,21.204929306580283,0.003073234120099003,0.6302726726884678,0.6302726726884414,21.20492930658071,21.204929306580283,0.003073234120099003,0.6302726726884678,0.6302726726884414,7.008898237412408e-15,7.008898237412408e-15
1762671452.5554144,2.764525786455795e-06,-2.648667403662283e-19,0.10495418741906594,5.0,0.0,1.5,-9.33444590450159e-17,-0.00017092697779422716,1.8176657246000458e-14,0.0011908630717899946,6.572722435167622e-18,1.3919129671855615,-1.2836318482126626e-14,-0.04020524035480753,7.314545406922166e-12,0.0,0.0,0.0,24.990330329577176,-2.3399136078968306e-17,34.267916399824635,24.994888996377966,-2.972463832826935e-13,34.26459146736612,4.553732593557548e-15,0.0018439404720594018,-2.79443214082719e-13,21.20492930658071,21.204929306580283,0.003073234120099003,0.6302726726884678,0.6302726726884414,21.20492930658071,21.204929306580283,0.003073234120099003,0.6302726726884678,0.6302726726884414,7.008898237412408e-15,7.008898237412408e-15
1762671452.5569344,2.764525786455795e-06,-2.648667403662283e-19,0.10495418741906594,5.0,0.0,1.5,-9.33444590450159e-17,-0.00017092697779422716,1.8176657246000458e-14,0.0011908630717899946,6.572722435167622e-18,1.3919129671855615,-1.2836318482126626e-14,-0.04020524035480753,7.314545406922166e-12,0.0,0.0,0.0,24.988077546653173,-6.440289064979811e-17,34.25809939104906,24.993932814992313,-4.574615287145676e-13,34.25382775405106,6.56937255644854e-15,0.0020957255062213393,-3.74794951423162e-13,21.200130405434685,21.200130405434116,0.003492875843702232,0.6304099032485059,0.6304099032484706,21.200130405434685,21.200130405434116,0.003492875843702232,0.6304099032485059,0.6304099032484706,1.0789120631949103e-14,1.0789120631949103e-14
1762671452.5584543,2.764525786455795e-06,-2.648667403662283e-19,0.10495418741906594,5.0,0.0,1.5,-9.33444590450159e-17,-0.00017092697779422716,1.8176657246000458e-14,0.0011908630717899946,6.572722435167622e-18,1.3919129671855615,-1.2836318482126626e-14,-0.04020524035480753,7.314545406922166e-12,0.0,0.0,0.0,24.988077546653173,-6.440289064979811e-17,34.25809939104906,24.993932814992313,-4.574615287145676e-13,34.25382775405106,6.56937255644854e-15,0.0020957255062213393,-3.74794951423162e-13,21.200130405434685,21.200130405434116,0.003492875843702232,0.6304099032485059,0.6304099032484706,21.200130405434685,21.200130405434116,0.003492875843702232,0.6304099032485059,0.6304099032484706,1.0789120631949103e-14,1.0789120631949103e-14
1762671452.5600235,4.175290558064819e-06,-2.8275734947103347e-19,0.10634624207032939,5.0,0.0,1.5,-1.073968071213491e-16,-0.00021339345128364027,2.6538629092155375e-14,0.0014310695107571925,1.2760759305324904e-17,1.3921962398583467,-1.332116177936558e-14,-0.044701381381510016,9.409393866814677e-12,0.0,0.0,0.0,24.988077546653173,-6.440289064979811e-17,34.25809939104906,24.993932814992313,-4.574615287145676e-13,34.25382775405106,6.56937255644854e-15,0.0020957255062213393,-3.74794951423162e-13,21.200130405434685,21.200130405434116,0.003492875843702232,0.6304099032485059,0.6304099032484706,21.200130405434685,21.200130405434116,0.003492875843702232,0.6304099032485059,0.6304099032484706,1.0789120631949103e-14,1.0789120631949103e-14
1762671452.5614636,4.175290558064819e-06,-2.8275734947103347e-19,0.10634624207032939,5.0,0.0,1.5,-1.073968071213491e-16,-0.00021339345128364027,2.6538629092155375e-14,0.0014310695107571925,1.2760759305324904e-17,1.3921962398583467,-1.332116177936558e-14,-0.044701381381510016,9.409393866814677e-12,0.0,0.0,0.0,24.98566842843965,-1.2619380630585926e-16,34.248306391064894,24.992976223802334,-6.668891669042796e-13,34.24297383330825,9.130598775701293e-15,0.002341765793907551,-4.837151830329816e-13,21.195299219142083,21.19529921914135,0.0039029429898459183,0.6305483096158331,0.6305483096157876,21.195299219142083,21.19529921914135,0.0039029429898459183,0.6305483096158331,0.6305483096157876,1.5732006422962038e-14,1.5732006422962038e-14
1762671452.5628307,4.175290558064819e-06,-2.8275734947103347e-19,0.10634624207032939,5.0,0.0,1.5,-1.073968071213491e-16,-0.00021339345128364027,2.6538629092155375e-14,0.0014310695107571925,1.2760759305324904e-17,1.3921962398583467,-1.332116177936558e-14,-0.044701381381510016,9.409393866814677e-12,0.0,0.0,0.0,24.98566842843965,-1.2619380630585926e-16,34.248306391064894,24.992976223802334,-6.668891669042796e-13,34.24297383330825,9.130598775701293e-15,0.002341765793907551,-4.837151830329816e-13,21.195299219142083,21.19529921914135,0.0039029429898459183,0.6305483096158331,0.6305483096157876,21.195299219142083,21.19529921914135,0.0039029429898459183,0.6305483096158331,0.6305483096157876,1.5732006422962038e-14,1.5732006422962038e-14
1762671452.5644557,5.844680977719012e-06,-2.923224025874372e-19,0.10773857870710314,5.0,0.0,1.5,-1.2256110455407859e-16,-0.00026027750068638813,3.711842323556276e-14,0.0016871359502407552,2.178095799366576e-17,1.3924769188658024,-1.3965190739238273e-14,-0.04904107095890823,1.175018990366082e-11,0.0,0.0,0.0,24.98566842843965,-1.2619380630585926e-16,34.248306391064894,24.992976223802334,-6.668891669042796e-13,34.24297383330825,9.130598775701293e-15,0.002341765793907551,-4.837151830329816e-13,21.195299219142083,21.19529921914135,0.0039029429898459183,0.6305483096158331,0.6305483096157876,21.195299219142083,21.19529921914135,0.0039029429898459183,0.6305483096158331,0.6305483096157876,1.5732006422962038e-14,1.5732006422962038e-14
1762671452.566138,5.844680977719012e-06,-2.923224025874372e-19,0.10773857870710314,5.0,0.0,1.5,-1.2256110455407859e-16,-0.00026027750068638813,3.711842323556276e-14,0.0016871359502407552,2.178095799366576e-17,1.3924769188658024,-1.3965190739238273e-14,-0.04904107095890823,1.175018990366082e-11,0.0,0.0,0.0,24.983099417092703,-2.163479679235151e-16,34.23853791780646,24.99201009183624,-9.317451217927832e-13,34.23203421946999,1.2281962752542621e-14,0.002582192296819244,-6.060413037951275e-13,21.19043480030968,21.19043480030877,0.004303653828032074,0.6306876594506665,0.6306876594506096,21.19043480030968,21.19043480030877,0.004303653828032074,0.6306876594506665,0.6306876594506096,2.1985040197928984e-14,2.1985040197928984e-14
1762671452.5676086,5.844680977719012e-06,-2.923224025874372e-19,0.10773857870710314,5.0,0.0,1.5,-1.2256110455407859e-16,-0.00026027750068638813,3.711842323556276e-14,0.0016871359502407552,2.178095799366576e-17,1.3924769188658024,-1.3965190739238273e-14,-0.04904107095890823,1.175018990366082e-11,0.0,0.0,0.0,24.983099417092703,-2.163479679235151e-16,34.23853791780646,24.99201009183624,-9.317451217927832e-13,34.23203421946999,1.2281962752542621e-14,0.002582192296819244,-6.060413037951275e-13,21.19043480030968,21.19043480030877,0.004303653828032074,0.6306876594506665,0.6306876594506096,21.19043480030968,21.19043480030877,0.004303653828032074,0.6306876594506665,0.6306876594506096,2.1985040197928984e-14,2.1985040197928984e-14
1762671452.569207,7.788358157420235e-06,-2.89891805785434e-19,0.10913119471108115,5.0,0.0,1.5,-1.3919424813776638e-16,-0.0003114247325111107,5.015918288765638e-14,0.001959397742613611,3.4559270939589184e-17,1.392754951973326,-1.4785632232216256e-14,-0.053228408526409136,1.4331323151232656e-11,0.0,0.0,0.0,24.983099417092703,-2.163479679235151e-16,34.23853791780646,24.99201009183624,-9.317451217927832e-13,34.23203421946999,1.2281962752542621e-14,0.002582192296819244,-6.060413037951275e-13,21.19043480030968,21.19043480030877,0.004303653828032074,0.6306876594506665,0.6306876594506096,21.19043480030968,21.19043480030877,0.004303653828032074,0.6306876594506665,0.6306876594506096,2.1985040197928984e-14,2.1985040197928984e-14
1762671452.5705478,7.788358157420235e-06,-2.89891805785434e-19,0.10913119471108115,5.0,0.0,1.5,-1.3919424813776638e-16,-0.0003114247325111107,5.015918288765638e-14,0.001959397742613611,3.4559270939589184e-17,1.392754951973326,-1.4785632232216256e-14,-0.053228408526409136,1.4331323151232656e-11,0.0,0.0,0.0,24.980367080783072,-3.44143250366828e-16,34.22879450671133,24.99102556241921,-1.258102312478927e-12,34.22101334285489,1.6061643999882833e-14,0.0028171327900590425,-7.416142569333289e-13,21.18553624796812,21.18553624796699,0.004695221316765071,0.6308277265577179,0.6308277265576484,21.18553624796812,21.18553624796699,0.004695221316765071,0.6308277265577179,0.6308277265576484,2.969248211972033e-14,2.969248211972033e-14
1762671452.5719233,7.788358157420235e-06,-2.89891805785434e-19,0.10913119471108115,5.0,0.0,1.5,-1.3919424813776638e-16,-0.0003114247325111107,5.015918288765638e-14,0.001959397742613611,3.4559270939589184e-17,1.392754951973326,-1.4785632232216256e-14,-0.053228408526409136,1.4331323151232656e-11,0.0,0.0,0.0,24.980367080783072,-3.44143250366828e-16,34.22879450671133,24.99102556241921,-1.258102312478927e-12,34.22101334285489,1.6061643999882833e-14,0.0028171327900590425,-7.416142569333289e-13,21.18553624796812,21.18553624796699,0.004695221316765071,0.6308277265577179,0.6308277265576484,21.18553624796812,21.18553624796699,0.004695221316765071,0.6308277265577179,0.6308277265576484,2.969248211972033e-14,2.969248211972033e-14
1762671452.5735545,1.0022321943093e-05,-2.707766672642141e-19,0.11052408741094756,5.0,0.0,1.5,-1.577542744071855e-16,-0.00036668480118320267,6.589850688110334e-14,0.0022481777801140503,5.2208618912250894e-17,1.393030285278991,-1.5845658861218783e-14,-0.05726739088637295,1.7147314109428822e-11,0.0,0.0,0.0,24.980367080783072,-3.44143250366828e-16,34.22879450671133,24.99102556241921,-1.258102312478927e-12,34.22101334285489,1.6061643999882833e-14,0.0028171327900590425,-7.416142569333289e-13,21.18553624796812,21.18553624796699,0.004695221316765071,0.6308277265577179,0.6308277265576484,21.18553624796812,21.18553624796699,0.004695221316765071,0.6308277265577179,0.6308277265576484,2.969248211972033e-14,2.969248211972033e-14
1762671452.5750816,1.0022321943093e-05,-2.707766672642141e-19,0.11052408741094756,5.0,0.0,1.5,-1.577542744071855e-16,-0.00036668480118320267,6.589850688110334e-14,0.0022481777801140503,5.2208618912250894e-17,1.393030285278991,-1.5845658861218783e-14,-0.05726739088637295,1.7147314109428822e-11,0.0,0.0,0.0,24.977468110589147,-5.207323057855741e-16,34.21907671015536,24.990014046441114,-1.6518953468694084e-12,34.20991555192253,2.0504757877646572e-14,0.0030467119408016147,-8.902786457613045e-13,21.180602706456543,21.18060270645519,0.005077853234669358,0.630968290731933,0.6309682907318496,21.180602706456543,21.18060270645519,0.005077853234669358,0.630968290731933,0.6309682907318496,3.8995475477331654e-14,3.8995475477331654e-14
1762671452.57649,1.0022321943093e-05,-2.707766672642141e-19,0.11052408741094756,5.0,0.0,1.5,-1.577542744071855e-16,-0.00036668480118320267,6.589850688110334e-14,0.0022481777801140503,5.2208618912250894e-17,1.393030285278991,-1.5845658861218783e-14,-0.05726739088637295,1.7147314109428822e-11,0.0,0.0,0.0,24.977468110589147,-5.207323057855741e-16,34.21907671015536,24.990014046441114,-1.6518953468694084e-12,34.20991555192253,2.0504757877646572e-14,0.0030467119408016147,-8.902786457613045e-13,21.180602706456543,21.18060270645519,0.005077853234669358,0.630968290731933,0.6309682907318496,21.180602706456543,21.18060270645519,0.005077853234669358,0.630968290731933,0.6309682907318496,3.8995475477331654e-14,3.8995475477331654e-14
1762671452.5779932,1.2562898368360301e-05,-2.2892536655838234e-19,0.11191725408072584,5.0,0.0,1.5,-1.7874308439293565e-16,-0.00042591130768684026,8.456857535484667e-14,0.0025537868040482123,7.60460331118936e-17,1.3933028632721312,-1.7146436283658676e-14,-0.061161914752128926,2.0192809025241694e-11,0.0,0.0,0.0,24.977468110589147,-5.207323057855741e-16,34.21907671015536,24.990014046441114,-1.6518953468694084e-12,34.20991555192253,2.0504757877646572e-14,0.0030467119408016147,-8.902786457613045e-13,21.180602706456543,21.18060270645519,0.005077853234669358,0.630968290731933,0.6309682907318496,21.180602706456543,21.18060270645519,0.005077853234669358,0.630968290731933,0.6309682907318496,3.8995475477331654e-14,3.8995475477331654e-14
1762671452.5793593,1.2562898368360301e-05,-2.2892536655838234e-19,0.11191725408072584,5.0,0.0,1.5,-1.7874308439293565e-16,-0.00042591130768684026,8.456857535484667e-14,0.0025537868040482123,7.60460331118936e-17,1.3933028632721312,-1.7146436283658676e-14,-0.061161914752128926,2.0192809025241694e-11,0.0,0.0,0.0,24.97439931746767,-7.593157042864192e-16,34.20938509687507,24.988967215785436,-2.1189214755098636e-12,34.19874511532592,2.563830595862602e-14,0.003271051385011492,-1.051882769634765e-12,21.175633364324174,21.175633364322568,0.005451752308352487,0.6311091376084502,0.6311091376083517,21.175633364324174,21.175633364322568,0.005451752308352487,0.6311091376084502,0.6311091376083517,5.003206844050801e-14,5.003206844050801e-14
1762671452.580787,1.2562898368360301e-05,-2.2892536655838234e-19,0.11191725408072584,5.0,0.0,1.5,-1.7874308439293565e-16,-0.00042591130768684026,8.456857535484667e-14,0.0025537868040482123,7.60460331118936e-17,1.3933028632721312,-1.7146436283658676e-14,-0.061161914752128926,2.0192809025241694e-11,0.0,0.0,0.0,24.97439931746767,-7.593157042864192e-16,34.20938509687507,24.988967215785436,-2.1189214755098636e-12,34.19874511532592,2.563830595862602e-14,0.003271051385011492,-1.051882769634765e-12,21.175633364324174,21.175633364322568,0.005451752308352487,0.6311091376084502,0.6311091376083517,21.175633364324174,21.175633364322568,0.005451752308352487,0.6311091376084502,0.6311091376083517,5.003206844050801e-14,5.003206844050801e-14
1762671452.5825791,1.542672741964948e-05,-1.567561104444384e-19,0.11331069193818818,5.0,0.0,1.5,-2.027293907117526e-16,-0.0004889617007232768,1.0639627512825628e-13,0.002876523706299297,1.0760938538293591e-16,1.393572628892944,-1.8728850254945066e-14,-0.06491577923274858,2.3462573093873776e-11,0.0,0.0,0.0,24.97439931746767,-7.593157042864192e-16,34.20938509687507,24.988967215785436,-2.1189214755098636e-12,34.19874511532592,2.563830595862602e-14,0.003271051385011492,-1.051882769634765e-12,21.175633364324174,21.175633364322568,0.005451752308352487,0.6311091376084502,0.6311091376083517,21.175633364324174,21.175633364322568,0.005451752308352487,0.6311091376084502,0.6311091376083517,5.003206844050801e-14,5.003206844050801e-14
1762671452.5842056,1.542672741964948e-05,-1.567561104444384e-19,0.11331069193818818,5.0,0.0,1.5,-2.027293907117526e-16,-0.0004889617007232768,1.0639627512825628e-13,0.002876523706299297,1.0760938538293591e-16,1.393572628892944,-1.8728850254945066e-14,-0.06491577923274858,2.3462573093873776e-11,0.0,0.0,0.0,24.971157629299906,-1.0753100732774087e-15,34.199720251379624,24.98787699691556,-2.664844279778045e-12,34.187506223867615,3.1486625580536096e-14,0.003490269802257176,-1.226278132380054e-12,21.170627453248823,21.170627453246947,0.005817116337095293,0.6312500585166512,0.6312500585165365,21.170627453248823,21.170627453246947,0.005817116337095293,0.6312500585166512,0.6312500585165365,6.293730040980005e-14,6.293730040980005e-14
1762671452.5855956,1.542672741964948e-05,-1.567561104444384e-19,0.11331069193818818,5.0,0.0,1.5,-2.027293907117526e-16,-0.0004889617007232768,1.0639627512825628e-13,0.002876523706299297,1.0760938538293591e-16,1.393572628892944,-1.8728850254945066e-14,-0.06491577923274858,2.3462573093873776e-11,0.0,0.0,0.0,24.971157629299906,-1.0753100732774087e-15,34.199720251379624,24.98787699691556,-2.664844279778045e-12,34.187506223867615,3.1486625580536096e-14,0.003490269802257176,-1.226278132380054e-12,21.170627453248823,21.170627453246947,0.005817116337095293,0.6312500585166512,0.6312500585165365,21.170627453248823,21.170627453246947,0.005817116337095293,0.6312500585166512,0.6312500585165365,6.293730040980005e-14,6.293730040980005e-14
1762671452.5870426,1.8630751104897774e-05,-4.4968860699358565e-20,0.11470439814332578,5.0,0.0,1.5,-2.303694673103986e-16,-0.0005556971803229586,1.316033196587535e-13,0.0032166758233650432,1.486742857903504e-16,1.3938395235929155,-2.0584079527824295e-14,-0.06853268825615653,2.6951491292005205e-11,0.0,0.0,0.0,24.971157629299906,-1.0753100732774087e-15,34.199720251379624,24.98787699691556,-2.664844279778045e-12,34.187506223867615,3.1486625580536096e-14,0.003490269802257176,-1.226278132380054e-12,21.170627453248823,21.170627453246947,0.005817116337095293,0.6312500585166512,0.6312500585165365,21.170627453248823,21.170627453246947,0.005817116337095293,0.6312500585166512,0.6312500585165365,6.293730040980005e-14,6.293730040980005e-14
1762671452.5883458,1.8630751104897774e-05,-4.4968860699358565e-20,0.11470439814332578,5.0,0.0,1.5,-2.303694673103986e-16,-0.0005556971803229586,1.316033196587535e-13,0.0032166758233650432,1.486742857903504e-16,1.3938395235929155,-2.0584079527824295e-14,-0.06853268825615653,2.6951491292005205e-11,0.0,0.0,0.0,24.967740088010824,-1.4865180136001424e-15,34.19008277335422,24.986735564614225,-3.295197151650807e-12,34.17620299236471,3.806726881875144e-14,0.0037044829886693957,-1.4133197600536327e-12,21.165584246972532,21.165584246970372,0.006174138314448993,0.6313908503381767,0.6313908503380444,21.165584246972532,21.165584246970372,0.006174138314448993,0.6313908503381767,0.6313908503380444,7.784328353993608e-14,7.784328353993608e-14
1762671452.5897167,1.8630751104897774e-05,-4.4968860699358565e-20,0.11470439814332578,5.0,0.0,1.5,-2.303694673103986e-16,-0.0005556971803229586,1.316033196587535e-13,0.0032166758233650432,1.486742857903504e-16,1.3938395235929155,-2.0584079527824295e-14,-0.06853268825615653,2.6951491292005205e-11,0.0,0.0,0.0,24.967740088010824,-1.4865180136001424e-15,34.19008277335422,24.986735564614225,-3.295197151650807e-12,34.17620299236471,3.806726881875144e-14,0.0037044829886693957,-1.4133197600536327e-12,21.165584246972532,21.165584246970372,0.006174138314448993,0.6313908503381767,0.6313908503380444,21.165584246972532,21.165584246970372,0.006174138314448993,0.6313908503381767,0.6313908503380444,7.784328353993608e-14,7.784328353993608e-14
1762671452.5913415,2.2192201818348536e-05,1.1778146460494167e-19,0.11609836979688082,5.0,0.0,1.5,-2.6237577216108678e-16,-0.0006259826038505683,1.6040636461974836e-13,0.0035745192231375973,2.01270281555179e-16,1.3941034873958729,-2.275728426889747e-14,-0.07201625293211884,3.065456520617609e-11,0.0,0.0,0.0,24.967740088010824,-1.4865180136001424e-15,34.19008277335422,24.986735564614225,-3.295197151650807e-12,34.17620299236471,3.806726881875144e-14,0.0037044829886693957,-1.4133197600536327e-12,21.165584246972532,21.165584246970372,0.006174138314448993,0.6313908503381767,0.6313908503380444,21.165584246972532,21.165584246970372,0.006174138314448993,0.6313908503381767,0.6313908503380444,7.784328353993608e-14,7.784328353993608e-14
1762671452.592763,2.2192201818348536e-05,1.1778146460494167e-19,0.11609836979688082,5.0,0.0,1.5,-2.6237577216108678e-16,-0.0006259826038505683,1.6040636461974836e-13,0.0035745192231375973,2.01270281555179e-16,1.3941034873958729,-2.275728426889747e-14,-0.07201625293211884,3.065456520617609e-11,0.0,0.0,0.0,24.964143846759534,-2.0132917228744463e-15,34.180473277056876,24.985535335872573,-4.015384878160484e-12,34.16483946142824,4.5396487618105685e-14,0.003913803928090067,-1.6128658379274272e-12,21.160503060254552,21.160503060252083,0.006523006546816779,0.6315313153687865,0.6315313153686358,21.160503060254552,21.160503060252083,0.006523006546816779,0.6315313153687865,0.6315313153686358,9.487923956077287e-14,9.487923956077287e-14
1762671452.5941408,2.2192201818348536e-05,1.1778146460494167e-19,0.11609836979688082,5.0,0.0,1.5,-2.6237577216108678e-16,-0.0006259826038505683,1.6040636461974836e-13,0.0035745192231375973,2.01270281555179e-16,1.3941034873958729,-2.275728426889747e-14,-0.07201625293211884,3.065456520617609e-11,0.0,0.0,0.0,24.964143846759534,-2.0132917228744463e-15,34.180473277056876,24.985535335872573,-4.015384878160484e-12,34.16483946142824,4.5396487618105685e-14,0.003913803928090067,-1.6128658379274272e-12,21.160503060254552,21.160503060252083,0.006523006546816779,0.6315313153687865,0.6315313153686358,21.160503060254552,21.160503060252083,0.006523006546816779,0.6315313153687865,0.6315313153686358,9.487923956077287e-14,9.487923956077287e-14
1762671452.595579,2.6128590994143344e-05,3.4526683360129604e-19,0.11749260393894055,5.0,0.0,1.5,-2.9946869409788046e-16,-0.0006996863943436314,1.9301712569191768e-13,0.0039503189846327195,2.676976076214421e-16,1.3943644589594955,-2.525610915438073e-14,-0.07536999385661086,3.456691193143917e-11,0.0,0.0,0.0,24.964143846759534,-2.0132917228744463e-15,34.180473277056876,24.985535335872573,-4.015384878160484e-12,34.16483946142824,4.5396487618105685e-14,0.003913803928090067,-1.6128658379274272e-12,21.160503060254552,21.160503060252083,0.006523006546816779,0.6315313153687865,0.6315313153686358,21.160503060254552,21.160503060252083,0.006523006546816779,0.6315313153687865,0.6315313153686358,9.487923956077287e-14,9.487923956077287e-14
1762671452.596944,2.6128590994143344e-05,3.4526683360129604e-19,0.11749260393894055,5.0,0.0,1.5,-2.9946869409788046e-16,-0.0006996863943436314,1.9301712569191768e-13,0.0039503189846327195,2.676976076214421e-16,1.3943644589594955,-2.525610915438073e-14,-0.07536999385661086,3.456691193143917e-11,0.0,0.0,0.0,24.960366167198707,-2.6787024103816796e-15,34.17089239071035,24.98426896392496,-4.830684716187201e-12,34.153419599161666,5.34849357233078e-14,0.004118342861457426,-1.8247779531109987e-12,21.155383247841637,21.155383247838838,0.00686390476909571,0.6316712611839479,0.6316712611837777,21.155383247841637,21.155383247838838,0.00686390476909571,0.6316712611839479,0.6316712611837777,1.141715245617299e-13,1.141715245617299e-13
1762671452.5985348,2.6128590994143344e-05,3.4526683360129604e-19,0.11749260393894055,5.0,0.0,1.5,-2.9946869409788046e-16,-0.0006996863943436314,1.9301712569191768e-13,0.0039503189846327195,2.676976076214421e-16,1.3943644589594955,-2.525610915438073e-14,-0.07536999385661086,3.456691193143917e-11,0.0,0.0,0.0,24.960366167198707,-2.6787024103816796e-15,34.17089239071035,24.98426896392496,-4.830684716187201e-12,34.153419599161666,5.34849357233078e-14,0.004118342861457426,-1.8247779531109987e-12,21.155383247841637,21.155383247838838,0.00686390476909571,0.6316712611839479,0.6316712611837777,21.155383247841637,21.155383247838838,0.00686390476909571,0.6316712611839479,0.6316712611837777,1.141715245617299e-13,1.141715245617299e-13
1762671452.600092,3.0457698041622094e-05,6.5366690742800455e-19,0.11888709754759395,5.0,0.0,1.5,-3.4250288662592044e-16,-0.0007766804511267977,2.2964248885290073e-13,0.004344329470868413,3.5054255046008504e-16,1.394622375637122,-2.8170478533131164e-14,-0.07859734335902682,3.868375655336628e-11,0.0,0.0,0.0,24.960366167198707,-2.6787024103816796e-15,34.17089239071035,24.98426896392496,-4.830684716187201e-12,34.153419599161666,5.34849357233078e-14,0.004118342861457426,-1.8247779531109987e-12,21.155383247841637,21.155383247838838,0.00686390476909571,0.6316712611839479,0.6316712611837777,21.155383247841637,21.155383247838838,0.00686390476909571,0.6316712611839479,0.6316712611837777,1.141715245617299e-13,1.141715245617299e-13
1762671452.6015456,3.0457698041622094e-05,6.5366690742800455e-19,0.11888709754759395,5.0,0.0,1.5,-3.4250288662592044e-16,-0.0007766804511267977,2.2964248885290073e-13,0.004344329470868413,3.5054255046008504e-16,1.394622375637122,-2.8170478533131164e-14,-0.07859734335902682,3.868375655336628e-11,0.0,0.0,0.0,24.956404416801103,-3.5086938391385626e-15,34.16134075589082,24.982929332425922,-5.7462532324391025e-12,34.141947302783265,6.234399556550498e-14,0.004318207354471499,-2.0489204232840166e-12,21.150224203455895,21.150224203452744,0.007197012257452499,0.6318105005080367,0.6318105005078456,21.150224203455895,21.150224203452744,0.007197012257452499,0.6318105005080367,0.6318105005078456,1.3584379005071272e-13,1.3584379005071272e-13
1762671452.6029365,3.0457698041622094e-05,6.5366690742800455e-19,0.11888709754759395,5.0,0.0,1.5,-3.4250288662592044e-16,-0.0007766804511267977,2.2964248885290073e-13,0.004344329470868413,3.5054255046008504e-16,1.394622375637122,-2.8170478533131164e-14,-0.07859734335902682,3.868375655336628e-11,0.0,0.0,0.0,24.956404416801103,-3.5086938391385626e-15,34.16134075589082,24.982929332425922,-5.7462532324391025e-12,34.141947302783265,6.234399556550498e-14,0.004318207354471499,-2.0489204232840166e-12,21.150224203455895,21.150224203452744,0.007197012257452499,0.6318105005080367,0.6318105005078456,21.150224203455895,21.150224203452744,0.007197012257452499,0.6318105005080367,0.6318105005078456,1.3584379005071272e-13,1.3584379005071272e-13
1762671452.6043167,3.519755955544336e-05,1.061996881785288e-18,0.12028184753765092,5.0,0.0,1.5,-3.924119805876062e-16,-0.0008568400626453536,2.7048462066019744e-13,0.004756794595086299,4.526938611743465e-16,1.3948771735397096,-3.1447453242664575e-14,-0.0817016476936583,4.300043191277443e-11,0.0,0.0,0.0,24.956404416801103,-3.5086938391385626e-15,34.16134075589082,24.982929332425922,-5.7462532324391025e-12,34.141947302783265,6.234399556550498e-14,0.004318207354471499,-2.0489204232840166e-12,21.150224203455895,21.150224203452744,0.007197012257452499,0.6318105005080367,0.6318105005078456,21.150224203455895,21.150224203452744,0.007197012257452499,0.6318105005080367,0.6318105005078456,1.3584379005071272e-13,1.3584379005071272e-13
1762671452.6058643,3.519755955544336e-05,1.061996881785288e-18,0.12028184753765092,5.0,0.0,1.5,-3.924119805876062e-16,-0.0008568400626453536,2.7048462066019744e-13,0.004756794595086299,4.526938611743465e-16,1.3948771735397096,-3.1447453242664575e-14,-0.0817016476936583,4.300043191277443e-11,0.0,0.0,0.0,24.95225606625136,-4.5322485961541284e-15,34.15181902691465,24.98150954976578,-6.767126953514255e-12,34.13042640017655,7.197476088492934e-14,0.004513502363583055,-2.2851610247375504e-12,21.145025358799998,21.145025358796477,0.007522503939305092,0.6319488510870455,0.6319488510868324,21.145025358799998,21.145025358796477,0.007522503939305092,0.6319488510870455,0.6319488510868324,1.6001699782068412e-13,1.6001699782068412e-13
1762671452.6075342,3.519755955544336e-05,1.061996881785288e-18,0.12028184753765092,5.0,0.0,1.5,-3.924119805876062e-16,-0.0008568400626453536,2.7048462066019744e-13,0.004756794595086299,4.526938611743465e-16,1.3948771735397096,-3.1447453242664575e-14,-0.0817016476936583,4.300043191277443e-11,0.0,0.0,0.0,24.95225606625136,-4.5322485961541284e-15,34.15181902691465,24.98150954976578,-6.767126953514255e-12,34.13042640017655,7.197476088492934e-14,0.004513502363583055,-2.2851610247375504e-12,21.145025358799998,21.145025358796477,0.007522503939305092,0.6319488510870455,0.6319488510868324,21.145025358799998,21.145025358796477,0.007522503939305092,0.6319488510870455,0.6319488510868324,1.6001699782068412e-13,1.6001699782068412e-13
1762671452.6093369,4.036645879383059e-05,1.5925175253712633e-18,0.12167685075942408,5.0,0.0,1.5,-4.501668661244823e-16,-0.0009400438214629354,3.157410734683905e-13,0.005187948080502587,5.773577384249942e-16,1.3951287875978018,-3.522053307356066e-14,-0.0846861691768305,4.751237673585671e-11,0.0,0.0,0.0,24.95225606625136,-4.5322485961541284e-15,34.15181902691465,24.98150954976578,-6.767126953514255e-12,34.13042640017655,7.197476088492934e-14,0.004513502363583055,-2.2851610247375504e-12,21.145025358799998,21.145025358796477,0.007522503939305092,0.6319488510870455,0.6319488510868324,21.145025358799998,21.145025358796477,0.007522503939305092,0.6319488510870455,0.6319488510868324,1.6001699782068412e-13,1.6001699782068412e-13
1762671452.6107547,4.036645879383059e-05,1.5925175253712633e-18,0.12167685075942408,5.0,0.0,1.5,-4.501668661244823e-16,-0.0009400438214629354,3.157410734683905e-13,0.005187948080502587,5.773577384249942e-16,1.3951287875978018,-3.522053307356066e-14,-0.0846861691768305,4.751237673585671e-11,0.0,0.0,0.0,24.947918686901005,-5.78153997187778e-15,34.14232787022487,24.980002943521416,-7.898223347551287e-12,34.118860651373154,8.238473092154059e-14,0.004704330300347982,-2.533369925175156e-12,21.139786182580004,21.139786182576096,0.007840550500579972,0.6320861355646902,0.6320861355644543,21.139786182580004,21.139786182576096,0.007840550500579972,0.6320861355646902,0.6320861355644543,1.868094426153765e-13,1.868094426153765e-13
1762671452.6121557,4.036645879383059e-05,1.5925175253712633e-18,0.12167685075942408,5.0,0.0,1.5,-4.501668661244823e-16,-0.0009400438214629354,3.157410734683905e-13,0.005187948080502587,5.773577384249942e-16,1.3951287875978018,-3.522053307356066e-14,-0.0846861691768305,4.751237673585671e-11,0.0,0.0,0.0,24.947918686901005,-5.78153997187778e-15,34.14232787022487,24.980002943521416,-7.898223347551287e-12,34.118860651373154,8.238473092154059e-14,0.004704330300347982,-2.533369925175156e-12,21.139786182580004,21.139786182576096,0.007840550500579972,0.6320861355646902,0.6320861355644543,21.139786182580004,21.139786182576096,0.007840550500579972,0.6320861355646902,0.6320861355644543,1.868094426153765e-13,1.868094426153765e-13
1762671452.6135406,4.598291541843682e-05,2.270901975795444e-18,0.12307210399757335,5.0,0.0,1.5,-5.168419962729372e-16,-0.0010261735413697806,3.656048906942144e-13,0.005638013713769263,7.280734268178162e-16,1.3953771516233846,-3.9374532644053715e-14,-0.08755408827105246,5.221513369692578e-11,0.0,0.0,0.0,24.947918686901005,-5.78153997187778e-15,34.14232787022487,24.980002943521416,-7.898223347551287e-12,34.118860651373154,8.238473092154059e-14,0.004704330300347982,-2.533369925175156e-12,21.139786182580004,21.139786182576096,0.007840550500579972,0.6320861355646902,0.6320861355644543,21.139786182580004,21.139786182576096,0.007840550500579972,0.6320861355646902,0.6320861355644543,1.868094426153765e-13,1.868094426153765e-13
1762671452.6152427,4.598291541843682e-05,2.270901975795444e-18,0.12307210399757335,5.0,0.0,1.5,-5.168419962729372e-16,-0.0010261735413697806,3.656048906942144e-13,0.005638013713769263,7.280734268178162e-16,1.3953771516233846,-3.9374532644053715e-14,-0.08755408827105246,5.221513369692578e-11,0.0,0.0,0.0,24.943389948285215,-7.292088778057634e-15,34.132867963778295,24.97840305503896,-9.144345505479562e-12,34.107253749971704,9.356632255812152e-14,0.004890791094188042,-2.7934210534245457e-12,21.1345061795456,21.134506179541283,0.008151318490313404,0.6322221813618177,0.6322221813615577,21.1345061795456,21.134506179541283,0.008151318490313404,0.6322221813618177,0.6322221813615577,2.1633686228095024e-13,2.1633686228095024e-13
1762671452.6168838,4.598291541843682e-05,2.270901975795444e-18,0.12307210399757335,5.0,0.0,1.5,-5.168419962729372e-16,-0.0010261735413697806,3.656048906942144e-13,0.005638013713769263,7.280734268178162e-16,1.3953771516233846,-3.9374532644053715e-14,-0.08755408827105246,5.221513369692578e-11,0.0,0.0,0.0,24.943389948285215,-7.292088778057634e-15,34.132867963778295,24.97840305503896,-9.144345505479562e-12,34.107253749971704,9.356632255812152e-14,0.004890791094188042,-2.7934210534245457e-12,21.1345061795456,21.134506179541283,0.008151318490313404,0.6322221813618177,0.6322221813615577,21.1345061795456,21.134506179541283,0.008151318490313404,0.6322221813618177,0.6322221813615577,2.1633686228095024e-13,2.1633686228095024e-13
1762671452.618606,5.20656754895011e-05,3.1267281899392547e-18,0.12446760397001268,5.0,0.0,1.5,-5.935507673731117e-16,-0.0011151141765491914,4.202647083461581e-13,0.006107205592320025,9.08727247378262e-16,1.3956221983715156,-4.406189490527632e-14,-0.09030850561750078,5.710434416891573e-11,0.0,0.0,0.0,24.943389948285215,-7.292088778057634e-15,34.132867963778295,24.97840305503896,-9.144345505479562e-12,34.107253749971704,9.356632255812152e-14,0.004890791094188042,-2.7934210534245457e-12,21.1345061795456,21.134506179541283,0.008151318490313404,0.6322221813618177,0.6322221813615577,21.1345061795456,21.134506179541283,0.008151318490313404,0.6322221813618177,0.6322221813615577,2.1633686228095024e-13,2.1633686228095024e-13
1762671452.6200643,5.20656754895011e-05,3.1267281899392547e-18,0.12446760397001268,5.0,0.0,1.5,-5.935507673731117e-16,-0.0011151141765491914,4.202647083461581e-13,0.006107205592320025,9.08727247378262e-16,1.3956221983715156,-4.406189490527632e-14,-0.09030850561750078,5.710434416891573e-11,0.0,0.0,0.0,24.938667615699355,-9.102906114729738e-15,34.12343999643478,24.97670363414501,-1.0510182253247005e-11,34.095609324496664,1.0552286900067253e-13,0.005072982253597829,-3.0651901652705198e-12,21.129184889547794,21.129184889543055,0.008454970422663048,0.6323568205590123,0.6323568205587271,21.129184889547794,21.129184889543055,0.008454970422663048,0.6323568205590123,0.6323568205587271,2.487124398832671e-13,2.487124398832671e-13
1762671452.621508,5.20656754895011e-05,3.1267281899392547e-18,0.12446760397001268,5.0,0.0,1.5,-5.935507673731117e-16,-0.0011151141765491914,4.202647083461581e-13,0.006107205592320025,9.08727247378262e-16,1.3956221983715156,-4.406189490527632e-14,-0.09030850561750078,5.710434416891573e-11,0.0,0.0,0.0,24.938667615699355,-9.102906114729738e-15,34.12343999643478,24.97670363414501,-1.0510182253247005e-11,34.095609324496664,1.0552286900067253e-13,0.005072982253597829,-3.0651901652705198e-12,21.129184889547794,21.129184889543055,0.008454970422663048,0.6323568205590123,0.6323568205587271,21.129184889547794,21.129184889543055,0.008454970422663048,0.6323568205590123,0.6323568205587271,2.487124398832671e-13,2.487124398832671e-13
1762671452.623249,5.8633701710144735e-05,4.193708562444707e-18,0.1258633473268789,5.0,0.0,1.5,-6.814969673626036e-16,-0.0012067537427511924,4.799048531124863e-13,0.006595728365769624,1.1235670986996081e-15,1.3958638596016169,-4.9238319651268506e-14,-0.0929524440181248,6.21757488516679e-11,0.0,0.0,0.0,24.938667615699355,-9.102906114729738e-15,34.12343999643478,24.97670363414501,-1.0510182253247005e-11,34.095609324496664,1.0552286900067253e-13,0.005072982253597829,-3.0651901652705198e-12,21.129184889547794,21.129184889543055,0.008454970422663048,0.6323568205590123,0.6323568205587271,21.129184889547794,21.129184889543055,0.008454970422663048,0.6323568205590123,0.6323568205587271,2.487124398832671e-13,2.487124398832671e-13
1762671452.6248322,5.8633701710144735e-05,4.193708562444707e-18,0.1258633473268789,5.0,0.0,1.5,-6.814969673626036e-16,-0.0012067537427511924,4.799048531124863e-13,0.006595728365769624,1.1235670986996081e-15,1.3958638596016169,-4.9238319651268506e-14,-0.0929524440181248,6.21757488516679e-11,0.0,0.0,0.0,24.933749547833756,-1.1256639529809436e-14,34.11404466734945,24.974898633983315,-1.2000312149397694e-11,34.08393093970048,1.182456389213088e-13,0.00525099892583679,-3.3485565032959517e-12,21.123821886614063,21.123821886608873,0.00875166487639465,0.6324898897823066,0.6324898897819953,21.123821886614063,21.123821886608873,0.00875166487639465,0.6324898897823066,0.6324898897819953,2.8404689771133787e-13,2.8404689771133787e-13
1762671452.6262531,5.8633701710144735e-05,4.193708562444707e-18,0.1258633473268789,5.0,0.0,1.5,-6.814969673626036e-16,-0.0012067537427511924,4.799048531124863e-13,0.006595728365769624,1.1235670986996081e-15,1.3958638596016169,-4.9238319651268506e-14,-0.0929524440181248,6.21757488516679e-11,0.0,0.0,0.0,24.933749547833756,-1.1256639529809436e-14,34.11404466734945,24.974898633983315,-1.2000312149397694e-11,34.08393093970048,1.182456389213088e-13,0.00525099892583679,-3.3485565032959517e-12,21.123821886614063,21.123821886608873,0.00875166487639465,0.6324898897823066,0.6324898897819953,21.123821886614063,21.123821886608873,0.00875166487639465,0.6324898897823066,0.6324898897819953,2.8404689771133787e-13,2.8404689771133787e-13
1762671452.627666,6.570616391382415e-05,5.510100265469847e-18,0.12725933064956216,5.0,0.0,1.5,-7.819557264899137e-16,-0.0013009832404236386,5.447054409248598e-13,0.007103777471529773,1.3772161814858073e-15,1.3961020661383354,-5.502148017182101e-14,-0.09548885036862785,6.742518443696208e-11,0.0,0.0,0.0,24.933749547833756,-1.1256639529809436e-14,34.11404466734945,24.974898633983315,-1.2000312149397694e-11,34.08393093970048,1.182456389213088e-13,0.00525099892583679,-3.3485565032959517e-12,21.123821886614063,21.123821886608873,0.00875166487639465,0.6324898897823066,0.6324898897819953,21.123821886614063,21.123821886608873,0.00875166487639465,0.6324898897823066,0.6324898897819953,2.8404689771133787e-13,2.8404689771133787e-13
1762671452.6290057,6.570616391382415e-05,5.510100265469847e-18,0.12725933064956216,5.0,0.0,1.5,-7.819557264899137e-16,-0.0013009832404236386,5.447054409248598e-13,0.007103777471529773,1.3772161814858073e-15,1.3961020661383354,-5.502148017182101e-14,-0.09548885036862785,6.742518443696208e-11,0.0,0.0,0.0,24.928633694465134,-1.3799712316182888e-14,34.10468268536884,24.97298220597377,-1.361920508969775e-11,34.07222209781213,1.317319555495358e-13,0.005424933955144161,-3.643401415224158e-12,21.1184167780407,21.11841677803505,0.009041556591906934,0.6326212300919102,0.6326212300915715,21.1184167780407,21.11841677803505,0.009041556591906934,0.6326212300919102,0.6326212300915715,3.224485346804279e-13,3.224485346804279e-13
1762671452.6304467,6.570616391382415e-05,5.510100265469847e-18,0.12725933064956216,5.0,0.0,1.5,-7.819557264899137e-16,-0.0013009832404236386,5.447054409248598e-13,0.007103777471529773,1.3772161814858073e-15,1.3961020661383354,-5.502148017182101e-14,-0.09548885036862785,6.742518443696208e-11,0.0,0.0,0.0,24.928633694465134,-1.3799712316182888e-14,34.10468268536884,24.97298220597377,-1.361920508969775e-11,34.07222209781213,1.317319555495358e-13,0.005424933955144161,-3.643401415224158e-12,21.1184167780407,21.11841677803505,0.009041556591906934,0.6326212300919102,0.6326212300915715,21.1184167780407,21.11841677803505,0.009041556591906934,0.6326212300919102,0.6326212300915715,3.224485346804279e-13,3.224485346804279e-13
1762671452.6322455,7.330242978912058e-05,7.119047246539538e-18,0.1286555504497975,5.0,0.0,1.5,-8.962887421627628e-16,-0.0013976965797522496,6.148424717710041e-13,0.007631539364799177,1.6746868535563329e-15,1.3963367479318871,-6.132078041375219e-14,-0.09792059754354743,7.284857755100987e-11,0.0,0.0,0.0,24.928633694465134,-1.3799712316182888e-14,34.10468268536884,24.97298220597377,-1.361920508969775e-11,34.07222209781213,1.317319555495358e-13,0.005424933955144161,-3.643401415224158e-12,21.1184167780407,21.11841677803505,0.009041556591906934,0.6326212300919102,0.6326212300915715,21.1184167780407,21.11841677803505,0.009041556591906934,0.6326212300919102,0.6326212300915715,3.224485346804279e-13,3.224485346804279e-13
1762671452.6338232,7.330242978912058e-05,7.119047246539538e-18,0.1286555504497975,5.0,0.0,1.5,-8.962887421627628e-16,-0.0013976965797522496,6.148424717710041e-13,0.007631539364799177,1.6746868535563329e-15,1.3963367479318871,-6.132078041375219e-14,-0.09792059754354743,7.284857755100987e-11,0.0,0.0,0.0,24.92331809420306,-1.6782463771794326e-14,34.09535476843215,24.970948694890776,-1.537122499591586e-11,34.0604862397355,1.4596686731772735e-13,0.005594877939513672,-3.949609467411667e-12,21.112969203502548,21.112969203496416,0.00932479656585612,0.6327506868738588,0.6327506868734919,21.112969203502548,21.112969203496416,0.00932479656585612,0.6327506868738588,0.6327506868734919,3.640232893762776e-13,3.640232893762776e-13
1762671452.6352072,7.330242978912058e-05,7.119047246539538e-18,0.1286555504497975,5.0,0.0,1.5,-8.962887421627628e-16,-0.0013976965797522496,6.148424717710041e-13,0.007631539364799177,1.6746868535563329e-15,1.3963367479318871,-6.132078041375219e-14,-0.09792059754354743,7.284857755100987e-11,0.0,0.0,0.0,24.92331809420306,-1.6782463771794326e-14,34.09535476843215,24.970948694890776,-1.537122499591586e-11,34.0604862397355,1.4596686731772735e-13,0.005594877939513672,-3.949609467411667e-12,21.112969203502548,21.112969203496416,0.00932479656585612,0.6327506868738588,0.6327506868734919,21.112969203502548,21.112969203496416,0.00932479656585612,0.6327506868738588,0.6327506868734919,3.640232893762776e-13,3.640232893762776e-13
1762671452.6365623,8.144205583620461e-05,9.069151726336505e-18,0.1300520031688169,5.0,0.0,1.5,-1.025868229615925e-15,-0.0014967905075622852,6.904879171345586e-13,0.008179191743080072,2.0213927114916573e-15,1.396567834117796,-6.836038969989195e-14,-0.10025048623462691,7.84419487505737e-11,0.0,0.0,0.0,24.92331809420306,-1.6782463771794326e-14,34.09535476843215,24.970948694890776,-1.537122499591586e-11,34.0604862397355,1.4596686731772735e-13,0.005594877939513672,-3.949609467411667e-12,21.112969203502548,21.112969203496416,0.00932479656585612,0.6327506868738588,0.6327506868734919,21.112969203502548,21.112969203496416,0.00932479656585612,0.6327506868738588,0.6327506868734919,3.640232893762776e-13,3.640232893762776e-13
1762671452.6379085,8.144205583620461e-05,9.069151726336505e-18,0.1300520031688169,5.0,0.0,1.5,-1.025868229615925e-15,-0.0014967905075622852,6.904879171345586e-13,0.008179191743080072,2.0213927114916573e-15,1.396567834117796,-6.836038969989195e-14,-0.10025048623462691,7.84419487505737e-11,0.0,0.0,0.0,24.917800872290012,-2.025927287354763e-14,34.08606164297796,24.968792634057944,-1.726062920378257e-11,34.04872674620013,1.609494445377339e-13,0.0057609192860639995,-4.26706669235685e-12,21.1074788341797,21.107478834173065,0.009601532143439999,0.6328781097345076,0.6328781097341114,21.1074788341797,21.107478834173065,0.009601532143439999,0.6328781097345076,0.6328781097341114,4.088747249111261e-13,4.088747249111261e-13
1762671452.63934,8.144205583620461e-05,9.069151726336505e-18,0.1300520031688169,5.0,0.0,1.5,-1.025868229615925e-15,-0.0014967905075622852,6.904879171345586e-13,0.008179191743080072,2.0213927114916573e-15,1.396567834117796,-6.836038969989195e-14,-0.10025048623462691,7.84419487505737e-11,0.0,0.0,0.0,24.917800872290012,-2.025927287354763e-14,34.08606164297796,24.968792634057944,-1.726062920378257e-11,34.04872674620013,1.609494445377339e-13,0.0057609192860639995,-4.26706669235685e-12,21.1074788341797,21.107478834173065,0.009601532143439999,0.6328781097345076,0.6328781097341114,21.1074788341797,21.107478834173065,0.009601532143439999,0.6328781097345076,0.6328781097341114,4.088747249111261e-13,4.088747249111261e-13
1762671452.6410537,9.01447785494662e-05,1.1414516342295876e-17,0.13144868517656103,5.0,0.0,1.5,-1.17222829637694e-15,-0.0015981645360357247,7.718098156580835e-13,0.00874690376536866,2.4231620128090238e-15,1.3967952530759615,-7.60239611456344e-14,-0.10248124674364115,8.420140799730021e-11,0.0,0.0,0.0,24.917800872290012,-2.025927287354763e-14,34.08606164297796,24.968792634057944,-1.726062920378257e-11,34.04872674620013,1.609494445377339e-13,0.0057609192860639995,-4.26706669235685e-12,21.1074788341797,21.107478834173065,0.009601532143439999,0.6328781097345076,0.6328781097341114,21.1074788341797,21.107478834173065,0.009601532143439999,0.6328781097345076,0.6328781097341114,4.088747249111261e-13,4.088747249111261e-13
1762671452.6426518,9.01447785494662e-05,1.1414516342295876e-17,0.13144868517656103,5.0,0.0,1.5,-1.17222829637694e-15,-0.0015981645360357247,7.718098156580835e-13,0.00874690376536866,2.4231620128090238e-15,1.3967952530759615,-7.60239611456344e-14,-0.10248124674364115,8.420140799730021e-11,0.0,0.0,0.0,24.912080238453566,-2.4288692709799516e-14,34.076804043357576,24.966508740656437,-1.929157582153405e-11,34.03694693886727,1.766602475761659e-13,0.00592314426503998,-4.595662951715243e-12,21.101945371901294,21.101945371894143,0.009871907108399967,0.6330033523977788,0.6330033523973523,21.101945371901294,21.101945371894143,0.009871907108399967,0.6330033523977788,0.6330033523973523,4.571042025164512e-13,4.571042025164512e-13
1762671452.6440468,9.01447785494662e-05,1.1414516342295876e-17,0.13144868517656103,5.0,0.0,1.5,-1.17222829637694e-15,-0.0015981645360357247,7.718098156580835e-13,0.00874690376536866,2.4231620128090238e-15,1.3967952530759615,-7.60239611456344e-14,-0.10248124674364115,8.420140799730021e-11,0.0,0.0,0.0,24.912080238453566,-2.4288692709799516e-14,34.076804043357576,24.966508740656437,-1.929157582153405e-11,34.03694693886727,1.766602475761659e-13,0.00592314426503998,-4.595662951715243e-12,21.101945371901294,21.101945371894143,0.009871907108399967,0.6330033523977788,0.6330033523973523,21.101945371901294,21.101945371894143,0.009871907108399967,0.6330033523977788,0.6330033523973523,4.571042025164512e-13,4.571042025164512e-13
1762671452.645494,9.943050582094844e-05,1.4215463888381773e-17,0.13284559277095043,5.0,0.0,1.5,-1.3369366784429799e-15,-0.0017017208731989779,8.589723592861906e-13,0.009334836266161904,2.8862487758097564e-15,1.397018932488986,-8.441238143245497e-14,-0.10461554073080812,9.012314888501553e-11,0.0,0.0,0.0,24.912080238453566,-2.4288692709799516e-14,34.076804043357576,24.966508740656437,-1.929157582153405e-11,34.03694693886727,1.766602475761659e-13,0.00592314426503998,-4.595662951715243e-12,21.101945371901294,21.101945371894143,0.009871907108399967,0.6330033523977788,0.6330033523973523,21.101945371901294,21.101945371894143,0.009871907108399967,0.6330033523977788,0.6330033523973523,4.571042025164512e-13,4.571042025164512e-13
1762671452.6469388,9.943050582094844e-05,1.4215463888381773e-17,0.13284559277095043,5.0,0.0,1.5,-1.3369366784429799e-15,-0.0017017208731989779,8.589723592861906e-13,0.009334836266161904,2.8862487758097564e-15,1.397018932488986,-8.441238143245497e-14,-0.10461554073080812,9.012314888501553e-11,0.0,0.0,0.0,24.906154484809274,-2.893356507754302e-14,34.0675827112554,24.96409191114401,-2.146812131477385e-11,34.02515008139372,1.9308929336432667e-13,0.0060816370624786975,-4.935289510311532e-12,21.096368548306117,21.09636854829843,0.01013606177079783,0.633126272605088,0.6331262726046301,21.096368548306117,21.09636854829843,0.01013606177079783,0.633126272605088,0.6331262726046301,5.088108236642815e-13,5.088108236642815e-13
1762671452.6485589,9.943050582094844e-05,1.4215463888381773e-17,0.13284559277095043,5.0,0.0,1.5,-1.3369366784429799e-15,-0.0017017208731989779,8.589723592861906e-13,0.009334836266161904,2.8862487758097564e-15,1.397018932488986,-8.441238143245497e-14,-0.10461554073080812,9.012314888501553e-11,0.0,0.0,0.0,24.906154484809274,-2.893356507754302e-14,34.0675827112554,24.96409191114401,-2.146812131477385e-11,34.02515008139372,1.9308929336432667e-13,0.0060816370624786975,-4.935289510311532e-12,21.096368548306117,21.09636854829843,0.01013606177079783,0.633126272605088,0.6331262726046301,21.096368548306117,21.09636854829843,0.01013606177079783,0.633126272605088,0.6331262726046301,5.088108236642815e-13,5.088108236642815e-13
1762671452.6502268,0.00010931930855936624,1.7538853083021732e-17,0.13424272217721456,5.0,0.0,1.5,-1.5216407556320319e-15,-0.0018073643551372658,9.521359778540265e-13,0.00994314196441841,3.4173450330108804e-15,1.3972387993996995,-9.354953361166998e-14,-0.10665596291989202,9.620345326973889e-11,0.0,0.0,0.0,24.906154484809274,-2.893356507754302e-14,34.0675827112554,24.96409191114401,-2.146812131477385e-11,34.02515008139372,1.9308929336432667e-13,0.0060816370624786975,-4.935289510311532e-12,21.096368548306117,21.09636854829843,0.01013606177079783,0.633126272605088,0.6331262726046301,21.096368548306117,21.09636854829843,0.01013606177079783,0.633126272605088,0.6331262726046301,5.088108236642815e-13,5.088108236642815e-13
1762671452.6516345,0.00010931930855936624,1.7538853083021732e-17,0.13424272217721456,5.0,0.0,1.5,-1.5216407556320319e-15,-0.0018073643551372658,9.521359778540265e-13,0.00994314196441841,3.4173450330108804e-15,1.3972387993996995,-9.354953361166998e-14,-0.10665596291989202,9.620345326973889e-11,0.0,0.0,0.0,24.900021983813023,-3.426114459551873e-14,34.05839839511694,24.96153721678223,-2.379422400817653e-11,34.01333938045589,2.1022152140845505e-13,0.006236479831573749,-5.285840471474235e-12,21.09074812401995,21.090748124011707,0.010394133052622915,0.6332467320178704,0.63324673201738,21.09074812401995,21.090748124011707,0.010394133052622915,0.6332467320178704,0.63324673201738,5.640915122655673e-13,5.640915122655673e-13
1762671452.65293,0.00010931930855936624,1.7538853083021732e-17,0.13424272217721456,5.0,0.0,1.5,-1.5216407556320319e-15,-0.0018073643551372658,9.521359778540265e-13,0.00994314196441841,3.4173450330108804e-15,1.3972387993996995,-9.354953361166998e-14,-0.10665596291989202,9.620345326973889e-11,0.0,0.0,0.0,24.900021983813023,-3.426114459551873e-14,34.05839839511694,24.96153721678223,-2.379422400817653e-11,34.01333938045589,2.1022152140845505e-13,0.006236479831573749,-5.285840471474235e-12,21.09074812401995,21.090748124011707,0.010394133052622915,0.6332467320178704,0.63324673201738,21.09074812401995,21.090748124011707,0.010394133052622915,0.6332467320178704,0.63324673201738,5.640915122655673e-13,5.640915122655673e-13
1762671452.6544092,0.00011983141251962898,2.1458575041370145e-17,0.13564006954727867,5.0,0.0,1.5,-1.7280423729976237e-15,-0.0019150023798929056,1.0514574228380673e-12,0.010571965667606764,4.023591478155017e-15,1.3974547802678339,-1.0348705490996119e-13,-0.1086050427610737,1.0243868335140011e-10,0.0,0.0,0.0,24.900021983813023,-3.426114459551873e-14,34.05839839511694,24.96153721678223,-2.379422400817653e-11,34.01333938045589,2.1022152140845505e-13,0.006236479831573749,-5.285840471474235e-12,21.09074812401995,21.090748124011707,0.010394133052622915,0.6332467320178704,0.63324673201738,21.09074812401995,21.090748124011707,0.010394133052622915,0.6332467320178704,0.63324673201738,5.640915122655673e-13,5.640915122655673e-13
1762671452.6560476,0.00011983141251962898,2.1458575041370145e-17,0.13564006954727867,5.0,0.0,1.5,-1.7280423729976237e-15,-0.0019150023798929056,1.0514574228380673e-12,0.010571965667606764,4.023591478155017e-15,1.3974547802678339,-1.0348705490996119e-13,-0.1086050427610737,1.0243868335140011e-10,0.0,0.0,0.0,24.89368118626133,-4.0343207656761835e-14,34.04925184958527,24.95883989926907,-2.62737451365429e-11,34.00151798673644,2.2804213929609257e-13,0.006387752742770075,-5.647212001054863e-12,21.085083887849446,21.085083887840632,0.010646254571283459,0.6333645961226317,0.633364596122108,21.085083887849446,21.085083887840632,0.010646254571283459,0.6333645961226317,0.633364596122108,6.230410387811874e-13,6.230410387811874e-13
1762671452.657617,0.00011983141251962898,2.1458575041370145e-17,0.13564006954727867,5.0,0.0,1.5,-1.7280423729976237e-15,-0.0019150023798929056,1.0514574228380673e-12,0.010571965667606764,4.023591478155017e-15,1.3974547802678339,-1.0348705490996119e-13,-0.1086050427610737,1.0243868335140011e-10,0.0,0.0,0.0,24.89368118626133,-4.0343207656761835e-14,34.04925184958527,24.95883989926907,-2.62737451365429e-11,34.00151798673644,2.2804213929609257e-13,0.006387752742770075,-5.647212001054863e-12,21.085083887849446,21.085083887840632,0.010646254571283459,0.6333645961226317,0.633364596122108,21.085083887849446,21.085083887840632,0.010646254571283459,0.6333645961226317,0.633364596122108,6.230410387811874e-13,6.230410387811874e-13
1762671452.659252,0.00013098719033792004,2.6055866552658815e-17,0.13703763095920687,5.0,0.0,1.5,-1.957953776066555e-15,-0.0020245448430057924,1.1570898509254277e-12,0.011221444470970175,4.712587887759307e-15,1.3976668010257913,-1.1429658125690542e-13,-0.11046524605263855,1.088252810378512e-10,0.0,0.0,0.0,24.89368118626133,-4.0343207656761835e-14,34.04925184958527,24.95883989926907,-2.62737451365429e-11,34.00151798673644,2.2804213929609257e-13,0.006387752742770075,-5.647212001054863e-12,21.085083887849446,21.085083887840632,0.010646254571283459,0.6333645961226317,0.633364596122108,21.085083887849446,21.085083887840632,0.010646254571283459,0.6333645961226317,0.633364596122108,6.230410387811874e-13,6.230410387811874e-13
1762671452.660683,0.00013098719033792004,2.6055866552658815e-17,0.13703763095920687,5.0,0.0,1.5,-1.957953776066555e-15,-0.0020245448430057924,1.1570898509254277e-12,0.011221444470970175,4.712587887759307e-15,1.3976668010257913,-1.1429658125690542e-13,-0.11046524605263855,1.088252810378512e-10,0.0,0.0,0.0,24.88713061933861,-4.725615821035065e-14,34.04014383494605,24.955995366474504,-2.8910452656419314e-11,33.989688995875504,2.465363892070264e-13,0.006535534032620999,-6.019302361533632e-12,21.07937565599244,21.079375655983032,0.010892556721034998,0.6334797341384529,0.6334797341378949,21.07937565599244,21.079375655983032,0.010892556721034998,0.6334797341384529,0.6334797341378949,6.857521097454114e-13,6.857521097454114e-13
1762671452.6620152,0.00013098719033792004,2.6055866552658815e-17,0.13703763095920687,5.0,0.0,1.5,-1.957953776066555e-15,-0.0020245448430057924,1.1570898509254277e-12,0.011221444470970175,4.712587887759307e-15,1.3976668010257913,-1.1429658125690542e-13,-0.11046524605263855,1.088252810378512e-10,0.0,0.0,0.0,24.88713061933861,-4.725615821035065e-14,34.04014383494605,24.955995366474504,-2.8910452656419314e-11,33.989688995875504,2.465363892070264e-13,0.006535534032620999,-6.019302361533632e-12,21.07937565599244,21.079375655983032,0.010892556721034998,0.6334797341384529,0.6334797341378949,21.07937565599244,21.079375655983032,0.010892556721034998,0.6334797341384529,0.6334797341378949,6.857521097454114e-13,6.857521097454114e-13
1762671452.663552,0.0001428071537675152,3.1419870002326116e-17,0.13843540241670113,5.0,0.0,1.5,-2.2132542613385962e-15,-0.002135904074655408,1.2691828999877358e-12,0.011891707952132244,5.4924035865694845e-15,1.397874787133469,-1.259954234425137e-13,-0.1122389765225044,1.1535976965999551e-10,0.0,0.0,0.0,24.88713061933861,-4.725615821035065e-14,34.04014383494605,24.955995366474504,-2.8910452656419314e-11,33.989688995875504,2.465363892070264e-13,0.006535534032620999,-6.019302361533632e-12,21.07937565599244,21.079375655983032,0.010892556721034998,0.6334797341384529,0.6334797341378949,21.07937565599244,21.079375655983032,0.010892556721034998,0.6334797341384529,0.6334797341378949,6.857521097454114e-13,6.857521097454114e-13
1762671452.665306,0.0001428071537675152,3.1419870002326116e-17,0.13843540241670113,5.0,0.0,1.5,-2.2132542613385962e-15,-0.002135904074655408,1.2691828999877358e-12,0.011891707952132244,5.4924035865694845e-15,1.397874787133469,-1.259954234425137e-13,-0.1122389765225044,1.1535976965999551e-10,0.0,0.0,0.0,24.880368884709842,-5.50811352157122e-14,34.03107511658181,24.952999188276394,-3.1708021502440885e-11,33.977855449388635,2.6568593389426425e-13,0.006679900051438231,-6.402012363509944e-12,21.073623271264385,21.073623271254377,0.011133166752397053,0.6335920189268769,0.6335920189262834,21.073623271264385,21.073623271254377,0.011133166752397053,0.6335920189268769,0.6335920189262834,7.52315372973496e-13,7.52315372973496e-13
1762671452.666912,0.0001428071537675152,3.1419870002326116e-17,0.13843540241670113,5.0,0.0,1.5,-2.2132542613385962e-15,-0.002135904074655408,1.2691828999877358e-12,0.011891707952132244,5.4924035865694845e-15,1.397874787133469,-1.259954234425137e-13,-0.1122389765225044,1.1535976965999551e-10,0.0,0.0,0.0,24.880368884709842,-5.50811352157122e-14,34.03107511658181,24.952999188276394,-3.1708021502440885e-11,33.977855449388635,2.6568593389426425e-13,0.006679900051438231,-6.402012363509944e-12,21.073623271264385,21.073623271254377,0.011133166752397053,0.6335920189268769,0.6335920189262834,21.073623271264385,21.073623271254377,0.011133166752397053,0.6335920189268769,0.6335920189262834,7.52315372973496e-13,7.52315372973496e-13
1762671452.668421,0.00015531194611064726,3.764806524122846e-17,0.13983337984865457,5.0,0.0,1.5,-2.4959046644676054e-15,-0.002248994778364701,1.3878827717413257e-12,0.012582878361164462,6.371586662699975e-15,1.398078663632102,-1.386795663680651e-13,-0.11392857737058751,1.2203875055771747e-10,0.0,0.0,0.0,24.880368884709842,-5.50811352157122e-14,34.03107511658181,24.952999188276394,-3.1708021502440885e-11,33.977855449388635,2.6568593389426425e-13,0.006679900051438231,-6.402012363509944e-12,21.073623271264385,21.073623271254377,0.011133166752397053,0.6335920189268769,0.6335920189262834,21.073623271264385,21.073623271254377,0.011133166752397053,0.6335920189268769,0.6335920189262834,7.52315372973496e-13,7.52315372973496e-13
1762671452.669744,0.00015531194611064726,3.764806524122846e-17,0.13983337984865457,5.0,0.0,1.5,-2.4959046644676054e-15,-0.002248994778364701,1.3878827717413257e-12,0.012582878361164462,6.371586662699975e-15,1.398078663632102,-1.386795663680651e-13,-0.11392857737058751,1.2203875055771747e-10,0.0,0.0,0.0,24.8733946566578,-6.390410695320757e-14,34.02204646443572,24.949847092494508,-3.467003597424023e-11,33.96602033555328,2.8547561915626605e-13,0.0068209253097648815,-6.7952446503257014e-12,21.06782660234092,21.06782660233029,0.011368208849608137,0.6337013269041123,0.6337013269034825,21.06782660234092,21.06782660233029,0.011368208849608137,0.6337013269041123,0.6337013269034825,8.228194732340514e-13,8.228194732340514e-13
1762671452.6711283,0.00015531194611064726,3.764806524122846e-17,0.13983337984865457,5.0,0.0,1.5,-2.4959046644676054e-15,-0.002248994778364701,1.3878827717413257e-12,0.012582878361164462,6.371586662699975e-15,1.398078663632102,-1.386795663680651e-13,-0.11392857737058751,1.2203875055771747e-10,0.0,0.0,0.0,24.8733946566578,-6.390410695320757e-14,34.02204646443572,24.949847092494508,-3.467003597424023e-11,33.96602033555328,2.8547561915626605e-13,0.0068209253097648815,-6.7952446503257014e-12,21.06782660234092,21.06782660233029,0.011368208849608137,0.6337013269041123,0.6337013269034825,21.06782660234092,21.06782660233029,0.011368208849608137,0.6337013269041123,0.6337013269034825,8.228194732340514e-13,8.228194732340514e-13
1762671452.672859,0.00016852233484184508,4.4846880331250125e-17,0.14123155910875854,5.0,0.0,1.5,-2.8078902694484157e-15,-0.00236373397122716,1.5133323030830927e-12,0.013295070806232517,7.359173408578585e-15,1.3982783551970888,-1.5227897110514804e-13,-0.11553633277297856,1.2885889328836502e-10,0.0,0.0,0.0,24.8733946566578,-6.390410695320757e-14,34.02204646443572,24.949847092494508,-3.467003597424023e-11,33.96602033555328,2.8547561915626605e-13,0.0068209253097648815,-6.7952446503257014e-12,21.06782660234092,21.06782660233029,0.011368208849608137,0.6337013269041123,0.6337013269034825,21.06782660234092,21.06782660233029,0.011368208849608137,0.6337013269041123,0.6337013269034825,8.228194732340514e-13,8.228194732340514e-13
1762671452.674482,0.00016852233484184508,4.4846880331250125e-17,0.14123155910875854,5.0,0.0,1.5,-2.8078902694484157e-15,-0.00236373397122716,1.5133323030830927e-12,0.013295070806232517,7.359173408578585e-15,1.3982783551970888,-1.5227897110514804e-13,-0.11553633277297856,1.2885889328836502e-10,0.0,0.0,0.0,24.86620668026347,-7.381596848744792e-14,34.01305865248532,24.946534960920083,-3.7799989423004586e-11,33.954186590265685,3.0588129333250335e-13,0.006958682523700737,-7.19890434961171e-12,21.06198554301619,21.06198554300491,0.011597804206167895,0.6338075379554866,0.6338075379548196,21.06198554301619,21.06198554300491,0.011597804206167895,0.6338075379554866,0.6338075379548196,8.973510437991105e-13,8.973510437991105e-13
1762671452.6760156,0.00016852233484184508,4.4846880331250125e-17,0.14123155910875854,5.0,0.0,1.5,-2.8078902694484157e-15,-0.00236373397122716,1.5133323030830927e-12,0.013295070806232517,7.359173408578585e-15,1.3982783551970888,-1.5227897110514804e-13,-0.11553633277297856,1.2885889328836502e-10,0.0,0.0,0.0,24.86620668026347,-7.381596848744792e-14,34.01305865248532,24.946534960920083,-3.7799989423004586e-11,33.954186590265685,3.0588129333250335e-13,0.006958682523700737,-7.19890434961171e-12,21.06198554301619,21.06198554300491,0.011597804206167895,0.6338075379554866,0.6338075379548196,21.06198554301619,21.06198554300491,0.011597804206167895,0.6338075379554866,0.6338075379548196,8.973510437991105e-13,8.973510437991105e-13
1762671452.677528,0.00018245920441829292,5.3131937145559196e-17,0.14262993597516205,5.0,0.0,1.5,-3.1513208951160962e-15,-0.0024800409256193665,1.6456710447045315e-12,0.014028393434934236,8.464695680109822e-15,1.3984737861897705,-1.6701917349235833e-13,-0.11706446934887729,1.3581694584350212e-10,0.0,0.0,0.0,24.86620668026347,-7.381596848744792e-14,34.01305865248532,24.946534960920083,-3.7799989423004586e-11,33.954186590265685,3.0588129333250335e-13,0.006958682523700737,-7.19890434961171e-12,21.06198554301619,21.06198554300491,0.011597804206167895,0.6338075379554866,0.6338075379548196,21.06198554301619,21.06198554300491,0.011597804206167895,0.6338075379554866,0.6338075379548196,8.973510437991105e-13,8.973510437991105e-13
1762671452.6788793,0.00018245920441829292,5.3131937145559196e-17,0.14262993597516205,5.0,0.0,1.5,-3.1513208951160962e-15,-0.0024800409256193665,1.6456710447045315e-12,0.014028393434934236,8.464695680109822e-15,1.3984737861897705,-1.6701917349235833e-13,-0.11706446934887729,1.3581694584350212e-10,0.0,0.0,0.0,24.85880376962857,-8.49126164868299e-14,34.00411245822649,24.943058825438758,-4.110128944530843e-11,33.94235709786984,3.268930587351571e-13,0.007093242659108344,-7.612897515008529e-12,21.056100011476833,21.056100011464903,0.011822071098513907,0.6339105353520859,0.6339105353513805,21.056100011476833,21.056100011464903,0.011822071098513907,0.6339105353520859,0.6339105353513805,9.759948286462692e-13,9.759948286462692e-13
1762671452.6807761,0.00018245920441829292,5.3131937145559196e-17,0.14262993597516205,5.0,0.0,1.5,-3.1513208951160962e-15,-0.0024800409256193665,1.6456710447045315e-12,0.014028393434934236,8.464695680109822e-15,1.3984737861897705,-1.6701917349235833e-13,-0.11706446934887729,1.3581694584350212e-10,0.0,0.0,0.0,24.85880376962857,-8.49126164868299e-14,34.00411245822649,24.943058825438758,-4.110128944530843e-11,33.94235709786984,3.268930587351571e-13,0.007093242659108344,-7.612897515008529e-12,21.056100011476833,21.056100011464903,0.011822071098513907,0.6339105353520859,0.6339105353513805,21.056100011476833,21.056100011464903,0.011822071098513907,0.6339105353520859,0.6339105353513805,9.759948286462692e-13,9.759948286462692e-13
